"Time (s)","Acceleration x (m/s^2)","Acceleration y (m/s^2)","Acceleration z (m/s^2)","Absolute acceleration (m/s^2)"
7.766664494E-4,-5.373825073E-2,1.445993042E-1,9.790241089E0,9.791456344E0
1.076366659E-2,-7.080276489E-2,1.407073975E-1,9.802066498E0,9.803332047E0
2.075066650E-2,-5.748046875E-2,1.372645569E-1,9.795330505E0,9.796460854E0
3.073866665E-2,-6.107299805E-2,1.438508606E-1,9.795180817E0,9.796427421E0
4.072566656E-2,-6.077362061E-2,1.438508606E-1,9.789792023E0,9.791037450E0
5.071266647E-2,-5.269042969E-2,1.507365417E-1,9.792785797E0,9.794087576E0
6.070066663E-2,-5.269042969E-2,1.475930786E-1,9.789342957E0,9.790597301E0
7.068766654E-2,-4.969665527E-2,1.380130005E-1,9.794432373E0,9.795530759E0
8.067466668E-2,-5.688171387E-2,1.327738953E-1,9.788744202E0,9.789809880E0
9.066166659E-2,-6.032455444E-2,1.435514832E-1,9.785451050E0,9.786689856E0
1.006496665E-1,-5.014572144E-2,1.475930786E-1,9.786798248E0,9.788039552E0
1.106366666E-1,-6.197113037E-2,1.520837402E-1,9.796228638E0,9.797605085E0
1.206236666E-1,-5.478607178E-2,1.432521057E-1,9.785451050E0,9.786652897E0
1.306116665E-1,-5.433700562E-2,1.504371643E-1,9.799072723E0,9.800378058E0
1.405986666E-1,-6.960525513E-2,1.529818726E-1,9.786947937E0,9.788390995E0
1.505856665E-1,-6.810836792E-2,1.374142456E-1,9.787397003E0,9.788598547E0
1.605736664E-1,-5.493576050E-2,1.387614441E-1,9.795629883E0,9.796766685E0
1.705606666E-1,-6.137237549E-2,1.389111328E-1,9.794432373E0,9.795609648E0
1.805476665E-1,-5.403762817E-2,1.375639343E-1,9.789792023E0,9.790907606E0
1.905356667E-1,-7.035369873E-2,1.318757629E-1,9.787247314E0,9.788388573E0
2.005226666E-1,-5.658233643E-2,1.359173584E-1,9.793683929E0,9.794790452E0
2.105096665E-1,-5.493576050E-2,1.419049072E-1,9.788744202E0,9.789926863E0
2.204966666E-1,-5.508544922E-2,1.372645569E-1,9.793384552E0,9.794501363E0
2.304846665E-1,-5.688171387E-2,1.486408997E-1,9.787846069E0,9.789139917E0
2.404716667E-1,-5.313949585E-2,1.374142456E-1,9.780062256E0,9.781171924E0
2.504586666E-1,-4.984634399E-2,1.390608215E-1,9.789193268E0,9.790307830E0
2.604466665E-1,-5.418731689E-2,1.437011719E-1,9.782756653E0,9.783962082E0
2.704336667E-1,-6.002517700E-2,1.384620667E-1,9.782606964E0,9.783770939E0
2.804206666E-1,-5.942642212E-2,1.457968140E-1,9.787995758E0,9.789261932E0
2.904086665E-1,-5.583389282E-2,1.426533508E-1,9.793833618E0,9.795031615E0
3.003956666E-1,-5.987548828E-2,1.417552185E-1,9.783954163E0,9.785164213E0
3.103826665E-1,-5.807922363E-2,1.395098877E-1,9.788295135E0,9.789461572E0
3.203706664E-1,-4.954696655E-2,1.354682922E-1,9.785451050E0,9.786514130E0
3.303576666E-1,-5.403762817E-2,1.390608215E-1,9.790241089E0,9.791377766E0
3.403446665E-1,-5.478607178E-2,1.392105103E-1,9.793085175E0,9.794227806E0
3.503316666E-1,-6.391708374E-2,1.510359192E-1,9.795629883E0,9.797002707E0
3.603196666E-1,-6.167175293E-2,1.615141296E-1,9.788594513E0,9.790121182E0
3.703066665E-1,-6.391708374E-2,1.333726501E-1,9.782906342E0,9.784024231E0
3.802936666E-1,-5.089416504E-2,1.431024170E-1,9.784253540E0,9.785432328E0
3.902816665E-1,-5.613327026E-2,1.441502380E-1,9.789043579E0,9.790265800E0
4.002686667E-1,-5.733078003E-2,1.434017944E-1,9.795031128E0,9.796248552E0
4.102556666E-1,-5.688171387E-2,1.414558411E-1,9.775571594E0,9.776760470E0
4.202436665E-1,-5.373825073E-2,1.389111328E-1,9.789941711E0,9.791074651E0
4.302306667E-1,-5.643264771E-2,1.371148682E-1,9.779463501E0,9.780587482E0
4.402176666E-1,-5.792953491E-2,1.386117554E-1,9.782307587E0,9.783461083E0
4.502056665E-1,-5.613327026E-2,1.496887207E-1,9.796977081E0,9.798281359E0
4.601926666E-1,-6.017486572E-2,1.431024170E-1,9.790989532E0,9.792220144E0
4.701796665E-1,-5.388793945E-2,1.462458801E-1,9.787097626E0,9.788338557E0
4.801666667E-1,-6.107299805E-2,1.434017944E-1,9.786648560E0,9.787889661E0
4.901546666E-1,-6.092330933E-2,1.445993042E-1,9.796228638E0,9.797485194E0
5.001416665E-1,-5.927673340E-2,1.384620667E-1,9.798324280E0,9.799481832E0
5.101286666E-1,-5.553451538E-2,1.333726501E-1,9.784852295E0,9.785918801E0
5.201166666E-1,-5.224136353E-2,1.408570862E-1,9.790839844E0,9.791992378E0
5.301036665E-1,-5.688171387E-2,1.459465027E-1,9.790690155E0,9.791943097E0
5.400906666E-1,-6.421646118E-2,1.393601990E-1,9.796378326E0,9.797579973E0
5.500786665E-1,-5.358856201E-2,1.451980591E-1,9.806706848E0,9.807928090E0
5.600656667E-1,-5.149291992E-2,1.493893433E-1,9.793234863E0,9.794509573E0
5.700526666E-1,-5.508544922E-2,1.441502380E-1,9.790091400E0,9.791307539E0
5.800406665E-1,-5.613327026E-2,1.445993042E-1,9.790839844E0,9.792068461E0
5.900276667E-1,-4.969665527E-2,1.353186035E-1,9.788744202E0,9.789805612E0
6.000146666E-1,-5.239105225E-2,1.431024170E-1,9.783954163E0,9.785140887E0
6.100016665E-1,-5.807922363E-2,1.472937012E-1,9.791139221E0,9.792419307E0
6.199896666E-1,-5.763015747E-2,1.434017944E-1,9.794582062E0,9.795801298E0
6.299766665E-1,-5.957611084E-2,1.350192261E-1,9.806257782E0,9.807368209E0
6.399636667E-1,-5.972579956E-2,1.516346741E-1,9.784103851E0,9.785461073E0
6.499516666E-1,-5.508544922E-2,1.454974365E-1,9.789492645E0,9.790728786E0
6.599386665E-1,-5.598358154E-2,1.369651794E-1,9.782157898E0,9.783276893E0
6.699256666E-1,-5.284011841E-2,1.423539734E-1,9.779313812E0,9.780492593E0
6.799136666E-1,-6.137237549E-2,1.440005493E-1,9.790989532E0,9.792240742E0
6.899006665E-1,-5.927673340E-2,1.381626892E-1,9.784403229E0,9.785558196E0
6.998871665E-1,-6.047424316E-2,1.420545959E-1,9.783355408E0,9.784573556E0
7.098751666E-1,-5.194198608E-2,1.399589539E-1,9.785750427E0,9.786889082E0
7.198621666E-1,-6.077362061E-2,1.410067749E-1,9.789941711E0,9.791145748E0
7.298491665E-1,-6.077362061E-2,1.444496155E-1,9.789492645E0,9.790746926E0
7.398361666E-1,-5.897735596E-2,1.371148682E-1,9.795929260E0,9.797066341E0
7.498241665E-1,-5.852828979E-2,1.404080200E-1,9.793983307E0,9.795164572E0
7.598111667E-1,-5.852828979E-2,1.438508606E-1,9.790690155E0,9.791921790E0
7.697981666E-1,-5.508544922E-2,1.478924561E-1,9.785151672E0,9.786424262E0
7.797861665E-1,-5.777984619E-2,1.445993042E-1,9.794881439E0,9.796119123E0
7.897731666E-1,-5.373825073E-2,1.447489929E-1,9.790540466E0,9.791757896E0
7.997601666E-1,-5.583389282E-2,1.347198486E-1,9.796827393E0,9.797912728E0
8.097481665E-1,-6.361770630E-2,1.369651794E-1,9.788594513E0,9.789759405E0
8.197351666E-1,-5.867797852E-2,1.353186035E-1,9.789492645E0,9.790603683E0
8.297221665E-1,-5.777984619E-2,1.440005493E-1,9.793983307E0,9.795212284E0
8.397101667E-1,-5.882766724E-2,1.425036621E-1,9.786947937E0,9.788162131E0
8.496971666E-1,-6.032455444E-2,1.423539734E-1,9.795929260E0,9.797149268E0
8.596841665E-1,-5.209167480E-2,1.425036621E-1,9.789492645E0,9.790668368E0
8.696721666E-1,-6.197113037E-2,1.401086426E-1,9.790390778E0,9.791589372E0
8.796591666E-1,-5.792953491E-2,1.408570862E-1,9.780661011E0,9.781846776E0
8.896461665E-1,-4.745132446E-2,1.466949463E-1,9.790989532E0,9.792203381E0
8.996341666E-1,-5.343887329E-2,1.387614441E-1,9.794881439E0,9.796010048E0
9.096211665E-1,-5.942642212E-2,1.347198486E-1,9.793833618E0,9.794940422E0
9.196081667E-1,-5.373825073E-2,1.426533508E-1,9.789043579E0,9.790230435E0
9.295951666E-1,-5.942642212E-2,1.453477478E-1,9.789043579E0,9.790302940E0
9.395831665E-1,-6.227050781E-2,1.396595764E-1,9.785451050E0,9.786645731E0
9.495701666E-1,-6.032455444E-2,1.381626892E-1,9.796078949E0,9.797238935E0
9.595571666E-1,-6.915618896E-2,1.487905884E-1,9.793683929E0,9.795058250E0
9.695451665E-1,-5.942642212E-2,1.426533508E-1,9.793234863E0,9.794454072E0
9.795321666E-1,-5.568420410E-2,1.474433899E-1,9.796228638E0,9.797496405E0
9.895191665E-1,-5.763015747E-2,1.502874756E-1,9.787995758E0,9.789319104E0
9.995071667E-1,-5.478607178E-2,1.396595764E-1,9.787696381E0,9.788846038E0
1.009494167E0,-6.017486572E-2,1.404080200E-1,9.785600739E0,9.786793001E0
1.019481166E0,-6.002517700E-2,1.426533508E-1,9.789642334E0,9.790865642E0
1.029469167E0,-5.688171387E-2,1.383123779E-1,9.788594513E0,9.789736890E0
1.039456167E0,-5.763015747E-2,1.368154907E-1,9.786199493E0,9.787325490E0
1.049443166E0,-5.867797852E-2,1.333726501E-1,9.787397003E0,9.788481571E0
1.059431167E0,-6.301895142E-2,1.347198486E-1,9.780511322E0,9.781642119E0
1.069418167E0,-6.017486572E-2,1.440005493E-1,9.790690155E0,9.791933971E0
1.079405167E0,-6.032455444E-2,1.392105103E-1,9.793833618E0,9.795008706E0
1.089393167E0,-6.436614990E-2,1.398092651E-1,9.792785797E0,9.793995268E0
1.099380167E0,-5.763015747E-2,1.459465027E-1,9.787247314E0,9.788505075E0
1.109367167E0,-6.167175293E-2,1.417552185E-1,9.788594513E0,9.789815141E0
1.119354167E0,-6.182144165E-2,1.505868530E-1,9.789792023E0,9.791145292E0
1.129342166E0,-5.343887329E-2,1.404080200E-1,9.790690155E0,9.791842719E0
1.139329167E0,-5.882766724E-2,1.411564636E-1,9.787995758E0,9.789190304E0
1.149316167E0,-5.748046875E-2,1.326242065E-1,9.794881439E0,9.795947917E0
1.159304167E0,-6.182144165E-2,1.434017944E-1,9.794282684E0,9.795527513E0
1.169291167E0,-6.002517700E-2,1.384620667E-1,9.796378326E0,9.797540665E0
1.179278166E0,-6.735992432E-2,1.419049072E-1,9.797575836E0,9.798834963E0
1.189266167E0,-5.927673340E-2,1.380130005E-1,9.789792023E0,9.790944243E0
1.199253167E0,-5.807922363E-2,1.465452576E-1,9.783954163E0,9.785223951E0
1.209240166E0,-6.137237549E-2,1.423539734E-1,9.784852295E0,9.786080199E0
1.219228167E0,-5.673202515E-2,1.489402771E-1,9.797575836E0,9.798872078E0
1.229215167E0,-5.298980713E-2,1.413061523E-1,9.790241089E0,9.791404186E0
1.239202167E0,-5.777984619E-2,1.374142456E-1,9.791737976E0,9.792872601E0
1.249190167E0,-6.077362061E-2,1.351689148E-1,9.790540466E0,9.791662101E0
1.259177167E0,-4.580474854E-2,1.387614441E-1,9.789642334E0,9.790732855E0
1.269164167E0,-5.673202515E-2,1.441502380E-1,9.786199493E0,9.787425521E0
1.279152167E0,-5.673202515E-2,1.484912109E-1,9.789642334E0,9.790932805E0
1.289139166E0,-6.346801758E-2,1.459465027E-1,9.785900116E0,9.787194166E0
1.299126167E0,-5.179229736E-2,1.556762695E-1,9.791737976E0,9.793112382E0
1.309114167E0,-4.999603271E-2,1.483415222E-1,9.787397003E0,9.788648778E0
1.319101167E0,-5.763015747E-2,1.299298096E-1,9.791588287E0,9.792619883E0
1.329088167E0,-5.643264771E-2,1.348695374E-1,9.788893890E0,9.789985599E0
1.339076167E0,-5.792953491E-2,1.429527283E-1,9.784852295E0,9.786067941E0
1.349063167E0,-5.733078003E-2,1.410067749E-1,9.793833618E0,9.795016420E0
1.359050167E0,-5.748046875E-2,1.407073975E-1,9.789642334E0,9.790822213E0
1.369037166E0,-5.358856201E-2,1.401086426E-1,9.777667236E0,9.778817861E0
1.379025167E0,-5.254074097E-2,1.327738953E-1,9.797725525E0,9.798765989E0
1.389012167E0,-6.197113037E-2,1.435514832E-1,9.791288910E0,9.792537259E0
1.398999167E0,-5.478607178E-2,1.441502380E-1,9.797276459E0,9.798490027E0
1.408987167E0,-6.286926270E-2,1.401086426E-1,9.792187042E0,9.793391141E0
1.418974167E0,-5.837860107E-2,1.475930786E-1,9.781858521E0,9.783146114E0
1.428961167E0,-5.733078003E-2,1.359173584E-1,9.791288910E0,9.792400056E0
1.438949167E0,-5.927673340E-2,1.480421448E-1,9.785600739E0,9.786900021E0
1.448936166E0,-5.972579956E-2,1.357676697E-1,9.792187042E0,9.793310324E0
1.458923167E0,-5.538482666E-2,1.454974365E-1,9.791438599E0,9.792676182E0
1.468911167E0,-6.047424316E-2,1.425036621E-1,9.791737976E0,9.792961606E0
1.478898167E0,-6.092330933E-2,1.374142456E-1,9.790390778E0,9.791544613E0
1.488885167E0,-6.197113037E-2,1.395098877E-1,9.785750427E0,9.786941037E0
1.498873167E0,-5.328918457E-2,1.399589539E-1,9.788594513E0,9.789740077E0
1.508860167E0,-4.939727783E-2,1.465452576E-1,9.788744202E0,9.789965712E0
1.518847167E0,-6.496490479E-2,1.369651794E-1,9.794731750E0,9.795904755E0
1.528835166E0,-6.062393188E-2,1.374142456E-1,9.779463501E0,9.780616765E0
1.538822167E0,-5.777984619E-2,1.374142456E-1,9.788893890E0,9.790028845E0
1.548809167E0,-6.077362061E-2,1.360670471E-1,9.787995758E0,9.789130127E0
1.558797166E0,-6.795867920E-2,1.417552185E-1,9.787846069E0,9.789108417E0
1.568784167E0,-6.167175293E-2,1.369651794E-1,9.793983307E0,9.795135113E0
1.578771167E0,-6.167175293E-2,1.390608215E-1,9.790540466E0,9.791722215E0
1.588759167E0,-5.403762817E-2,1.344204712E-1,9.782457275E0,9.783530001E0
1.598746167E0,-5.688171387E-2,1.344204712E-1,9.780810699E0,9.781899730E0
1.608733166E0,-5.179229736E-2,1.347198486E-1,9.789342957E0,9.790406907E0
1.618721167E0,-5.478607178E-2,1.407073975E-1,9.790989532E0,9.792153803E0
1.628708167E0,-5.748046875E-2,1.395098877E-1,9.783056030E0,9.784219555E0
1.638695167E0,-5.882766724E-2,1.426533508E-1,9.785151672E0,9.786368270E0
1.648683167E0,-5.358856201E-2,1.341210938E-1,9.793234863E0,9.794299837E0
1.658670167E0,-5.463638306E-2,1.372645569E-1,9.780361633E0,9.781477412E0
1.668657167E0,-6.062393188E-2,1.431024170E-1,9.789642334E0,9.790875885E0
1.678645167E0,-5.598358154E-2,1.419049072E-1,9.803264008E0,9.804450845E0
1.688632166E0,-5.179229736E-2,1.398092651E-1,9.790390778E0,9.791525961E0
1.698619292E0,-5.733078003E-2,1.315763855E-1,9.793833618E0,9.794885201E0
1.708606292E0,-6.182144165E-2,1.387614441E-1,9.783804474E0,9.784983731E0
1.718594291E0,-6.137237549E-2,1.399589539E-1,9.787846069E0,9.789039062E0
1.728581292E0,-5.912704468E-2,1.408570862E-1,9.791737976E0,9.792929558E0
1.738568292E0,-6.256988525E-2,1.431024170E-1,9.800120544E0,9.801365006E0
1.748556291E0,-5.284011841E-2,1.417552185E-1,9.793534241E0,9.794702627E0
1.758543292E0,-5.867797852E-2,1.480421448E-1,9.783056030E0,9.784352042E0
1.768530292E0,-5.358856201E-2,1.339714050E-1,9.778864746E0,9.779929233E0
1.778518292E0,-5.074447632E-2,1.442999268E-1,9.790241089E0,9.791435954E0
1.788505292E0,-5.463638306E-2,1.451980591E-1,9.790690155E0,9.791919185E0
1.798492291E0,-5.463638306E-2,1.407073975E-1,9.793534241E0,9.794697373E0
1.808480292E0,-5.972579956E-2,1.435514832E-1,9.795929260E0,9.797163073E0
1.818467292E0,-5.912704468E-2,1.329235840E-1,9.786798248E0,9.787879476E0
1.828454292E0,-5.493576050E-2,1.375639343E-1,9.786049805E0,9.787170815E0
1.838442292E0,-5.927673340E-2,1.416055298E-1,9.785451050E0,9.786655103E0
1.848429292E0,-6.017486572E-2,1.484912109E-1,9.789792023E0,9.791103028E0
1.858416292E0,-5.463638306E-2,1.407073975E-1,9.795929260E0,9.797092108E0
1.868404292E0,-5.373825073E-2,1.422042847E-1,9.792187042E0,9.793366986E0
1.878391291E0,-5.972579956E-2,1.360670471E-1,9.805209961E0,9.806335900E0
1.888378292E0,-5.673202515E-2,1.390608215E-1,9.786947937E0,9.788100242E0
1.898366292E0,-5.553451538E-2,1.459465027E-1,9.783355408E0,9.784601550E0
1.908353291E0,-5.269042969E-2,1.426533508E-1,9.784403229E0,9.785584949E0
1.918340292E0,-5.298980713E-2,1.374142456E-1,9.796228638E0,9.797335664E0
1.928328292E0,-5.688171387E-2,1.408570862E-1,9.786349182E0,9.787528113E0
1.938315292E0,-5.613327026E-2,1.375639343E-1,9.786648560E0,9.787776295E0
1.948302292E0,-5.882766724E-2,1.375639343E-1,9.794282684E0,9.795425352E0
1.958290291E0,-6.406677246E-2,1.389111328E-1,9.792037354E0,9.793232173E0
1.968277292E0,-5.628295898E-2,1.429527283E-1,9.790241089E0,9.791446463E0
1.978264292E0,-6.631210327E-2,1.440005493E-1,9.780361633E0,9.781646443E0
1.988252291E0,-5.748046875E-2,1.282832336E-1,9.798473969E0,9.799482267E0
1.998239292E0,-5.224136353E-2,1.335223389E-1,9.801467743E0,9.802516375E0
2.008226292E0,-5.104385376E-2,1.282832336E-1,9.785451050E0,9.786425002E0
2.018214292E0,-4.864883423E-2,1.335223389E-1,9.787696381E0,9.788727975E0
2.028201292E0,-4.879852295E-2,1.465452576E-1,9.786199493E0,9.787418318E0
2.038188291E0,-5.343887329E-2,1.357676697E-1,9.787247314E0,9.788334821E0
2.048176292E0,-5.313949585E-2,1.342707825E-1,9.787846069E0,9.788911233E0
2.058163292E0,-6.032455444E-2,1.444496155E-1,9.793983307E0,9.795234237E0
2.068150291E0,-5.373825073E-2,1.460961914E-1,9.796228638E0,9.797465357E0
2.078138292E0,-5.403762817E-2,1.460961914E-1,9.789193268E0,9.790432523E0
2.088125292E0,-6.032455444E-2,1.368154907E-1,9.795180817E0,9.796322002E0
2.098112292E0,-5.418731689E-2,1.360670471E-1,9.785301361E0,9.786397357E0
2.108100292E0,-5.777984619E-2,1.405577087E-1,9.785750427E0,9.786930387E0
2.118087291E0,-6.032455444E-2,1.399589539E-1,9.798623657E0,9.799808832E0
2.128074292E0,-6.197113037E-2,1.371148682E-1,9.787995758E0,9.789152255E0
2.138062292E0,-5.613327026E-2,1.462458801E-1,9.794132996E0,9.795385645E0
2.148049291E0,-5.703140259E-2,1.440005493E-1,9.801617432E0,9.802841069E0
2.158036292E0,-5.239105225E-2,1.434017944E-1,9.793534241E0,9.794724183E0
2.168024292E0,-5.643264771E-2,1.366658020E-1,9.795929260E0,9.797045078E0
2.178011292E0,-5.882766724E-2,1.357676697E-1,9.797126770E0,9.798244052E0
2.187998292E0,-5.224136353E-2,1.420545959E-1,9.791438599E0,9.792608360E0
2.197986291E0,-6.421646118E-2,1.425036621E-1,9.790540466E0,9.791788073E0
2.207973292E0,-5.628295898E-2,1.369651794E-1,9.799970856E0,9.801089532E0
2.217960292E0,-5.598358154E-2,1.401086426E-1,9.784702606E0,9.785865812E0
2.227948291E0,-6.616241455E-2,1.384620667E-1,9.790241089E0,9.791443703E0
2.237935292E0,-6.002517700E-2,1.451980591E-1,9.791737976E0,9.792998422E0
2.247922292E0,-5.882766724E-2,1.390608215E-1,9.792187042E0,9.793351095E0
2.257910292E0,-5.478607178E-2,1.516346741E-1,9.788594513E0,9.789922223E0
2.267897292E0,-5.763015747E-2,1.404080200E-1,9.795031128E0,9.796206942E0
2.277884291E0,-5.972579956E-2,1.363664246E-1,9.793234863E0,9.794366343E0
2.287872292E0,-5.748046875E-2,1.472937012E-1,9.788594513E0,9.789871397E0
2.297859292E0,-5.733078003E-2,1.532812500E-1,9.788893890E0,9.790261772E0
2.307846291E0,-5.703140259E-2,1.440005493E-1,9.787546692E0,9.788772088E0
2.317834292E0,-6.077362061E-2,1.426533508E-1,9.789492645E0,9.790720590E0
2.327821292E0,-6.271957397E-2,1.374142456E-1,9.793833618E0,9.794998385E0
2.337808292E0,-5.748046875E-2,1.338217163E-1,9.793234863E0,9.794317809E0
2.347796292E0,-5.912704468E-2,1.404080200E-1,9.795031128E0,9.796215862E0
2.357783291E0,-6.436614990E-2,1.401086426E-1,9.800120544E0,9.801333385E0
2.367770292E0,-5.897735596E-2,1.350192261E-1,9.789792023E0,9.790900692E0
2.377758292E0,-5.328918457E-2,1.495390320E-1,9.797276459E0,9.798562531E0
2.387745291E0,-6.271957397E-2,1.404080200E-1,9.791887665E0,9.793095129E0
2.397732292E0,-6.541397095E-2,1.444496155E-1,9.787846069E0,9.789130470E0
2.407720292E0,-5.807922363E-2,1.393601990E-1,9.796677704E0,9.797841012E0
2.417707292E0,-5.942642212E-2,1.465452576E-1,9.783505096E0,9.784783032E0
2.427694292E0,-6.331832886E-2,1.341210938E-1,9.799821167E0,9.800943454E0
2.437682291E0,-5.284011841E-2,1.402583313E-1,9.790839844E0,9.791986996E0
2.447669292E0,-5.777984619E-2,1.437011719E-1,9.787397003E0,9.788622407E0
2.457656292E0,-5.867797852E-2,1.435514832E-1,9.793983307E0,9.795211031E0
2.467644291E0,-5.942642212E-2,1.457968140E-1,9.787397003E0,9.788663254E0
2.477631292E0,-5.628295898E-2,1.375639343E-1,9.786349182E0,9.787477812E0
2.487618292E0,-6.256988525E-2,1.411564636E-1,9.798473969E0,9.799690416E0
2.497606292E0,-6.242019653E-2,1.417552185E-1,9.798174591E0,9.799398764E0
2.507593292E0,-6.017486572E-2,1.404080200E-1,9.805209961E0,9.806399839E0
2.517580291E0,-5.718109131E-2,1.395098877E-1,9.796827393E0,9.797987530E0
2.527568292E0,-5.643264771E-2,1.423539734E-1,9.790690155E0,9.791887612E0
2.537555292E0,-6.002517700E-2,1.410067749E-1,9.785451050E0,9.786651020E0
2.547542291E0,-5.209167480E-2,1.345701599E-1,9.791288910E0,9.792352179E0
2.557530292E0,-4.909790039E-2,1.456471252E-1,9.793983307E0,9.795189263E0
2.567517292E0,-5.239105225E-2,1.468446350E-1,9.792336731E0,9.793577836E0
2.577504292E0,-4.879852295E-2,1.402583313E-1,9.794432373E0,9.795558136E0
2.587492292E0,-5.688171387E-2,1.318757629E-1,9.786498871E0,9.787552651E0
2.597479291E0,-5.194198608E-2,1.395098877E-1,9.789342957E0,9.790474784E0
2.607466292E0,-4.819976807E-2,1.423539734E-1,9.786947937E0,9.788101848E0
2.617454292E0,-6.481521606E-2,1.410067749E-1,9.798024902E0,9.799253845E0
2.627441291E0,-6.227050781E-2,1.484912109E-1,9.796677704E0,9.798000882E0
2.637428292E0,-6.107299805E-2,1.404080200E-1,9.788744202E0,9.789941643E0
2.647416292E0,-5.269042969E-2,1.380130005E-1,9.790839844E0,9.791954285E0
2.657403292E0,-5.867797852E-2,1.423539734E-1,9.788295135E0,9.789506087E0
2.667390292E0,-5.433700562E-2,1.448986816E-1,9.805060272E0,9.806281409E0
2.677378291E0,-5.119354248E-2,1.466949463E-1,9.798923035E0,9.800154735E0
2.687365292E0,-6.107299805E-2,1.320254517E-1,9.803563385E0,9.804642557E0
2.697351833E0,-5.673202515E-2,1.413061523E-1,9.794881439E0,9.796064943E0
2.707339833E0,-5.867797852E-2,1.398092651E-1,9.781409454E0,9.782584559E0
2.717326833E0,-5.748046875E-2,1.347198486E-1,9.789941711E0,9.791037338E0
2.727313833E0,-4.640350342E-2,1.438508606E-1,9.787995758E0,9.789162748E0
2.737301833E0,-5.149291992E-2,1.419049072E-1,9.789342957E0,9.790506833E0
2.747288833E0,-5.583389282E-2,1.457968140E-1,9.792187042E0,9.793431534E0
2.757275833E0,-6.062393188E-2,1.378633118E-1,9.798024902E0,9.799182289E0
2.767263833E0,-5.912704468E-2,1.338217163E-1,9.783654785E0,9.784748603E0
2.777250833E0,-5.418731689E-2,1.399589539E-1,9.795480194E0,9.796629880E0
2.787238833E0,-5.763015747E-2,1.327738953E-1,9.790989532E0,9.792059343E0
2.797225833E0,-6.152206421E-2,1.366658020E-1,9.797126770E0,9.798273085E0
2.807212833E0,-6.706054688E-2,1.442999268E-1,9.791737976E0,9.793030796E0
2.817199833E0,-6.526428223E-2,1.450483704E-1,9.782606964E0,9.783899911E0
2.827187833E0,-6.062393188E-2,1.380130005E-1,9.795779572E0,9.796939331E0
2.837174833E0,-6.092330933E-2,1.321751404E-1,9.787696381E0,9.788778389E0
2.847162833E0,-5.957611084E-2,1.344204712E-1,9.789642334E0,9.790746407E0
2.857149833E0,-5.957611084E-2,1.431024170E-1,9.785451050E0,9.786678694E0
2.867136833E0,-5.538482666E-2,1.474433899E-1,9.790241089E0,9.791507933E0
2.877124833E0,-5.972579956E-2,1.445993042E-1,9.790839844E0,9.792089714E0
2.887111833E0,-6.077362061E-2,1.413061523E-1,9.787995758E0,9.789204351E0
2.897098833E0,-5.777984619E-2,1.411564636E-1,9.794582062E0,9.795769568E0
2.907086833E0,-5.269042969E-2,1.372645569E-1,9.785001984E0,9.786106563E0
2.917073833E0,-5.912704468E-2,1.423539734E-1,9.790241089E0,9.791454501E0
2.927060833E0,-6.122268677E-2,1.375639343E-1,9.799970856E0,9.801127528E0
2.937048833E0,-6.286926270E-2,1.369651794E-1,9.787846069E0,9.789006215E0
2.947035833E0,-6.825805664E-2,1.501377869E-1,9.791588287E0,9.792977163E0
2.957022833E0,-5.942642212E-2,1.419049072E-1,9.797126770E0,9.798334626E0
2.967010833E0,-6.286926270E-2,1.356179810E-1,9.792336731E0,9.793477597E0
2.976997833E0,-6.032455444E-2,1.416055298E-1,9.789193268E0,9.790403261E0
2.986984833E0,-6.167175293E-2,1.407073975E-1,9.786648560E0,9.787854311E0
2.996972833E0,-5.209167480E-2,1.362167358E-1,9.788744202E0,9.789830519E0
3.006959833E0,-5.284011841E-2,1.369651794E-1,9.790390778E0,9.791491363E0
3.016946833E0,-6.571334839E-2,1.441502380E-1,9.793833618E0,9.795114827E0
3.026934833E0,-6.301895142E-2,1.353186035E-1,9.792785797E0,9.793923431E0
3.036921833E0,-6.316864014E-2,1.465452576E-1,9.780211945E0,9.781513762E0
3.046908833E0,-6.376739502E-2,1.378633118E-1,9.784103851E0,9.785282865E0
3.056896833E0,-5.209167480E-2,1.393601990E-1,9.792935486E0,9.794065562E0
3.066883833E0,-5.867797852E-2,1.393601990E-1,9.787397003E0,9.788564985E0
3.076870833E0,-5.792953491E-2,1.501377869E-1,9.793983307E0,9.795305314E0
3.086858833E0,-5.433700562E-2,1.372645569E-1,9.792486420E0,9.793599152E0
3.096845833E0,-6.436614990E-2,1.440005493E-1,9.795779572E0,9.797049381E0
3.106833833E0,-5.568420410E-2,1.374142456E-1,9.793384552E0,9.794506848E0
3.116820833E0,-4.745132446E-2,1.451980591E-1,9.786049805E0,9.787241945E0
3.126807833E0,-6.182144165E-2,1.471440125E-1,9.797426147E0,9.798726058E0
3.136794833E0,-6.286926270E-2,1.386117554E-1,9.791737976E0,9.792920829E0
3.146782833E0,-5.628295898E-2,1.422042847E-1,9.794132996E0,9.795326996E0
3.156769833E0,-5.987548828E-2,1.528321838E-1,9.789792023E0,9.791167989E0
3.166757833E0,-5.688171387E-2,1.478924561E-1,9.802066498E0,9.803347150E0
3.176744833E0,-5.284011841E-2,1.425036621E-1,9.793534241E0,9.794713487E0
3.186731833E0,-5.298980713E-2,1.408570862E-1,9.782906342E0,9.784063835E0
3.196719833E0,-6.212081909E-2,1.386117554E-1,9.793534241E0,9.794712101E0
3.206706833E0,-5.209167480E-2,1.372645569E-1,9.791737976E0,9.792838592E0
3.216693833E0,-5.598358154E-2,1.429527283E-1,9.790690155E0,9.791893757E0
3.226681833E0,-5.972579956E-2,1.434017944E-1,9.787995758E0,9.789228376E0
3.236668833E0,-5.897735596E-2,1.431024170E-1,9.796677704E0,9.797900319E0
3.246655833E0,-5.194198608E-2,1.402583313E-1,9.789342957E0,9.790485478E0
3.256643833E0,-5.448669434E-2,1.390608215E-1,9.789342957E0,9.790482227E0
3.266630833E0,-5.209167480E-2,1.437011719E-1,9.792486420E0,9.793679280E0
3.276617833E0,-5.373825073E-2,1.460961914E-1,9.791737976E0,9.792975262E0
3.286605833E0,-5.254074097E-2,1.450483704E-1,9.799222412E0,9.800436696E0
3.296592833E0,-6.346801758E-2,1.425036621E-1,9.785001984E0,9.786245414E0
3.306579833E0,-5.897735596E-2,1.416055298E-1,9.785900116E0,9.787102305E0
3.316567833E0,-5.957611084E-2,1.374142456E-1,9.796827393E0,9.797972186E0
3.326554833E0,-5.703140259E-2,1.429527283E-1,9.795480194E0,9.796689252E0
3.336541833E0,-5.957611084E-2,1.387614441E-1,9.785900116E0,9.787065195E0
3.346529833E0,-5.688171387E-2,1.431024170E-1,9.799222412E0,9.800432323E0
3.356516833E0,-4.775070190E-2,1.496887207E-1,9.792935486E0,9.794195846E0
3.366504833E0,-5.418731689E-2,1.437011719E-1,9.783954163E0,9.785159444E0
3.376491833E0,-6.795867920E-2,1.419049072E-1,9.792935486E0,9.794199345E0
3.386478833E0,-5.478607178E-2,1.357676697E-1,9.798174591E0,9.799268324E0
3.396466833E0,-6.376739502E-2,1.425036621E-1,9.790690155E0,9.791934808E0
3.406453833E0,-6.436614990E-2,1.398092651E-1,9.790540466E0,9.791750214E0
3.416440833E0,-5.822891235E-2,1.393601990E-1,9.788744202E0,9.789909342E0
3.426428833E0,-5.643264771E-2,1.442999268E-1,9.798024902E0,9.799249925E0
3.436415833E0,-4.849914551E-2,1.432521057E-1,9.796528015E0,9.797695366E0
3.446402833E0,-4.969665527E-2,1.402583313E-1,9.790690155E0,9.791820866E0
3.456390833E0,-5.942642212E-2,1.384620667E-1,9.791438599E0,9.792597872E0
3.466377833E0,-5.718109131E-2,1.417552185E-1,9.791139221E0,9.792332279E0
3.476364833E0,-6.167175293E-2,1.419049072E-1,9.790091400E0,9.791314009E0
3.486352833E0,-6.406677246E-2,1.450483704E-1,9.796827393E0,9.798110560E0
3.496339833E0,-5.777984619E-2,1.414558411E-1,9.793534241E0,9.794726193E0
3.506326833E0,-5.957611084E-2,1.441502380E-1,9.783056030E0,9.784299356E0
3.516314833E0,-5.957611084E-2,1.422042847E-1,9.794132996E0,9.795346472E0
3.526301833E0,-6.227050781E-2,1.341210938E-1,9.791438599E0,9.792555127E0
3.536288833E0,-6.092330933E-2,1.440005493E-1,9.786199493E0,9.787448510E0
3.546276833E0,-5.388793945E-2,1.459465027E-1,9.790989532E0,9.792225504E0
3.556263833E0,-5.733078003E-2,1.442999268E-1,9.790839844E0,9.792070983E0
3.566251833E0,-6.885681152E-2,1.351689148E-1,9.791288910E0,9.792463960E0
3.576238833E0,-5.553451538E-2,1.356179810E-1,9.783654785E0,9.784752285E0
3.586225833E0,-5.313949585E-2,1.347198486E-1,9.787397003E0,9.788468386E0
3.596213833E0,-5.807922363E-2,1.416055298E-1,9.799372101E0,9.800567274E0
3.606200833E0,-5.897735596E-2,1.407073975E-1,9.801318054E0,9.802505420E0
3.616187833E0,-5.568420410E-2,1.442999268E-1,9.796528015E0,9.797748943E0
3.626175833E0,-5.972579956E-2,1.478924561E-1,9.791737976E0,9.793036911E0
3.636162833E0,-5.598358154E-2,1.444496155E-1,9.779912567E0,9.781139487E0
3.646149833E0,-5.358856201E-2,1.372645569E-1,9.790690155E0,9.791798967E0
3.656137833E0,-5.463638306E-2,1.354682922E-1,9.792187042E0,9.793276462E0
3.666124833E0,-5.298980713E-2,1.410067749E-1,9.798773346E0,9.799931118E0
3.676111833E0,-6.197113037E-2,1.442999268E-1,9.791588287E0,9.792847598E0
3.686099833E0,-4.790039063E-2,1.401086426E-1,9.789193268E0,9.790313055E0
3.696086833E0,-5.718109131E-2,1.363664246E-1,9.793683929E0,9.794800171E0
3.706074417E0,-5.912704468E-2,1.339714050E-1,9.787995758E0,9.789091138E0
3.716061417E0,-5.343887329E-2,1.356179810E-1,9.791288910E0,9.792373893E0
3.726048416E0,-5.733078003E-2,1.404080200E-1,9.802216187E0,9.803389383E0
3.736036417E0,-5.448669434E-2,1.362167358E-1,9.785301361E0,9.786401102E0
3.746023417E0,-6.571334839E-2,1.399589539E-1,9.785750427E0,9.786971859E0
3.756010417E0,-6.361770630E-2,1.360670471E-1,9.790390778E0,9.791542934E0
3.765998417E0,-5.403762817E-2,1.435514832E-1,9.794881439E0,9.796082355E0
3.775985416E0,-5.748046875E-2,1.395098877E-1,9.794432373E0,9.795594547E0
3.785972417E0,-6.047424316E-2,1.381626892E-1,9.786199493E0,9.787361574E0
3.795960417E0,-5.792953491E-2,1.442999268E-1,9.795929260E0,9.797163282E0
3.805947416E0,-5.254074097E-2,1.487905884E-1,9.793683929E0,9.794955032E0
3.815934417E0,-5.822891235E-2,1.469943237E-1,9.791887665E0,9.793164043E0
3.825922417E0,-5.134323120E-2,1.339714050E-1,9.796677704E0,9.797728231E0
3.835909417E0,-5.044509888E-2,1.351689148E-1,9.795779572E0,9.796841979E0
3.845896417E0,-5.388793945E-2,1.437011719E-1,9.786798248E0,9.788001527E0
3.855884416E0,-6.616241455E-2,1.350192261E-1,9.792636108E0,9.793790360E0
3.865871417E0,-5.763015747E-2,1.453477478E-1,9.795779572E0,9.797027336E0
3.875859417E0,-5.852828979E-2,1.407073975E-1,9.797875214E0,9.799060304E0
3.885846416E0,-6.616241455E-2,1.519340515E-1,9.784403229E0,9.785806454E0
3.895833417E0,-6.077362061E-2,1.493893433E-1,9.788145447E0,9.789474036E0
3.905821417E0,-5.478607178E-2,1.351689148E-1,9.779762878E0,9.780850378E0
3.915808417E0,-6.331832886E-2,1.362167358E-1,9.783654785E0,9.784807876E0
3.925795417E0,-5.807922363E-2,1.453477478E-1,9.788444824E0,9.789696177E0
3.935783416E0,-4.760101318E-2,1.389111328E-1,9.782457275E0,9.783559296E0
3.945770417E0,-6.182144165E-2,1.380130005E-1,9.798623657E0,9.799790562E0
3.955757417E0,-6.376739502E-2,1.441502380E-1,9.787696381E0,9.788965523E0
3.965745416E0,-6.167175293E-2,1.392105103E-1,9.790540466E0,9.791724342E0
3.975732417E0,-5.673202515E-2,1.471440125E-1,9.790989532E0,9.792259489E0
3.985719417E0,-5.134323120E-2,1.381626892E-1,9.793085175E0,9.794194316E0
3.995707417E0,-5.433700562E-2,1.465452576E-1,9.788744202E0,9.789991883E0
4.005694417E0,-6.242019653E-2,1.472937012E-1,9.792935486E0,9.794242040E0
4.015682417E0,-6.107299805E-2,1.396595764E-1,9.779762878E0,9.780950704E0
4.025669417E0,-5.328918457E-2,1.434017944E-1,9.783205719E0,9.784401768E0
4.035656417E0,-5.164260864E-2,1.419049072E-1,9.792636108E0,9.793800382E0
4.045644416E0,-6.391708374E-2,1.420545959E-1,9.785750427E0,9.786990157E0
4.055631417E0,-5.463638306E-2,1.300794983E-1,9.784552917E0,9.785570071E0
4.065618417E0,-6.376739502E-2,1.365161133E-1,9.795031128E0,9.796189960E0
4.075606417E0,-6.316864014E-2,1.425036621E-1,9.790390778E0,9.791631588E0
4.085593417E0,-5.598358154E-2,1.392105103E-1,9.786648560E0,9.787798719E0
4.095580416E0,-5.837860107E-2,1.543290710E-1,9.793534241E0,9.794924116E0
4.105568417E0,-5.927673340E-2,1.496887207E-1,9.804012451E0,9.805334292E0
4.115555417E0,-5.269042969E-2,1.472937012E-1,9.793833618E0,9.795082882E0
4.125542416E0,-5.777984619E-2,1.339714050E-1,9.793234863E0,9.794321617E0
4.135530417E0,-6.691085815E-2,1.405577087E-1,9.793384552E0,9.794621714E0
4.145517417E0,-5.119354248E-2,1.405577087E-1,9.792636108E0,9.793778597E0
4.155505416E0,-6.077362061E-2,1.380130005E-1,9.787397003E0,9.788558684E0
4.165492417E0,-5.927673340E-2,1.395098877E-1,9.786049805E0,9.787223688E0
4.175479417E0,-5.912704468E-2,1.404080200E-1,9.797725525E0,9.798909933E0
4.185467417E0,-5.433700562E-2,1.380130005E-1,9.793983307E0,9.795106386E0
4.195454417E0,-6.227050781E-2,1.356179810E-1,9.785600739E0,9.786738561E0
4.205441416E0,-6.092330933E-2,1.459465027E-1,9.784253540E0,9.785531634E0
4.215429417E0,-5.568420410E-2,1.440005493E-1,9.789193268E0,9.790410702E0
4.225416417E0,-5.792953491E-2,1.372645569E-1,9.790989532E0,9.792123029E0
4.235403417E0,-6.526428223E-2,1.390608215E-1,9.783654785E0,9.784860668E0
4.245391417E0,-5.807922363E-2,1.425036621E-1,9.776619415E0,9.777830418E0
4.255378417E0,-6.182144165E-2,1.462458801E-1,9.793833618E0,9.795120555E0
4.265366417E0,-5.224136353E-2,1.414558411E-1,9.788594513E0,9.789755945E0
4.275353417E0,-5.239105225E-2,1.477427673E-1,9.787696381E0,9.788951588E0
4.285340416E0,-5.942642212E-2,1.435514832E-1,9.795480194E0,9.796712242E0
4.295328417E0,-5.493576050E-2,1.342707825E-1,9.780960388E0,9.782036224E0
4.305315417E0,-5.882766724E-2,1.457968140E-1,9.790690155E0,9.791952365E0
4.315302416E0,-5.673202515E-2,1.357676697E-1,9.789193268E0,9.790299087E0
4.325290417E0,-5.972579956E-2,1.312770081E-1,9.792336731E0,9.793398770E0
4.335277417E0,-6.122268677E-2,1.369651794E-1,9.788444824E0,9.789594463E0
4.345264417E0,-5.972579956E-2,1.462458801E-1,9.784852295E0,9.786127399E0
4.355252417E0,-6.556365967E-2,1.396595764E-1,9.779613190E0,9.780830104E0
4.365239416E0,-5.927673340E-2,1.353186035E-1,9.785001984E0,9.786117140E0
4.375227417E0,-5.897735596E-2,1.432521057E-1,9.798024902E0,9.799249537E0
4.385214417E0,-6.047424316E-2,1.507365417E-1,9.794582062E0,9.795928563E0
4.395201416E0,-5.598358154E-2,1.408570862E-1,9.785750427E0,9.786924251E0
4.405189417E0,-6.227050781E-2,1.438508606E-1,9.796228638E0,9.797482646E0
4.415176417E0,-5.807922363E-2,1.348695374E-1,9.789342957E0,9.790444245E0
4.425163417E0,-5.523513794E-2,1.350192261E-1,9.779912567E0,9.781000508E0
4.435151417E0,-5.598358154E-2,1.419049072E-1,9.793983307E0,9.795171269E0
4.445138416E0,-4.760101318E-2,1.431024170E-1,9.789492645E0,9.790654238E0
4.455126417E0,-5.942642212E-2,1.478924561E-1,9.794582062E0,9.795878799E0
4.465113417E0,-5.284011841E-2,1.423539734E-1,9.789792023E0,9.790969542E0
4.475100416E0,-5.239105225E-2,1.496887207E-1,9.793384552E0,9.794668576E0
4.485088417E0,-5.538482666E-2,1.472937012E-1,9.792037354E0,9.793301713E0
4.495075417E0,-5.448669434E-2,1.344204712E-1,9.780361633E0,9.781437080E0
4.505062417E0,-5.733078003E-2,1.381626892E-1,9.778864746E0,9.780008766E0
4.515050417E0,-5.613327026E-2,1.371148682E-1,9.793234863E0,9.794355544E0
4.525037416E0,-5.179229736E-2,1.435514832E-1,9.795929260E0,9.797117920E0
4.535024417E0,-5.673202515E-2,1.450483704E-1,9.799521790E0,9.800759402E0
4.545012417E0,-5.987548828E-2,1.438508606E-1,9.792037354E0,9.793276963E0
4.554999416E0,-5.837860107E-2,1.366658020E-1,9.788295135E0,9.789423234E0
4.564986417E0,-5.104385376E-2,1.359173584E-1,9.786498871E0,9.787575755E0
4.574974417E0,-4.790039063E-2,1.359173584E-1,9.794731750E0,9.795791854E0
4.584961417E0,-5.718109131E-2,1.411564636E-1,9.791288910E0,9.792473301E0
4.594949417E0,-5.328918457E-2,1.366658020E-1,9.790690155E0,9.791788958E0
4.604936416E0,-5.912704468E-2,1.362167358E-1,9.793983307E0,9.795108985E0
4.614923417E0,-5.688171387E-2,1.426533508E-1,9.792935486E0,9.794139622E0
4.624911417E0,-5.493576050E-2,1.395098877E-1,9.794282684E0,9.795430274E0
4.634898416E0,-6.182144165E-2,1.517843628E-1,9.786199493E0,9.787571758E0
4.644885417E0,-5.673202515E-2,1.386117554E-1,9.795779572E0,9.796924474E0
4.654873417E0,-5.373825073E-2,1.405577087E-1,9.791737976E0,9.792894202E0
4.664860417E0,-5.403762817E-2,1.457968140E-1,9.790091400E0,9.791326080E0
4.674848417E0,-5.867797852E-2,1.410067749E-1,9.783056030E0,9.784248122E0
4.684835416E0,-5.613327026E-2,1.395098877E-1,9.788295135E0,9.789450220E0
4.694822417E0,-6.152206421E-2,1.390608215E-1,9.780810699E0,9.781992681E0
4.704811041E0,-5.313949585E-2,1.426533508E-1,9.783954163E0,9.785138366E0
4.714798042E0,-5.972579956E-2,1.419049072E-1,9.791887665E0,9.793097989E0
4.724785042E0,-5.463638306E-2,1.384620667E-1,9.796378326E0,9.797509132E0
4.734773042E0,-6.227050781E-2,1.338217163E-1,9.786648560E0,9.787761537E0
4.744760042E0,-5.239105225E-2,1.438508606E-1,9.796677704E0,9.797873847E0
4.754748042E0,-5.179229736E-2,1.384620667E-1,9.795629883E0,9.796745326E0
4.764735042E0,-6.242019653E-2,1.419049072E-1,9.789193268E0,9.790420732E0
4.774722042E0,-5.822891235E-2,1.471440125E-1,9.791588287E0,9.792866953E0
4.784710041E0,-5.254074097E-2,1.285826111E-1,9.789642334E0,9.790627715E0
4.794697042E0,-5.418731689E-2,1.392105103E-1,9.794432373E0,9.795571517E0
4.804684042E0,-6.616241455E-2,1.453477478E-1,9.795031128E0,9.796332897E0
4.814672041E0,-5.852828979E-2,1.354682922E-1,9.782307587E0,9.783420615E0
4.824659042E0,-5.224136353E-2,1.459465027E-1,9.772727509E0,9.773956850E0
4.834646042E0,-5.733078003E-2,1.392105103E-1,9.790241089E0,9.791398621E0
4.844634042E0,-6.571334839E-2,1.291813660E-1,9.791887665E0,9.792960232E0
4.854621042E0,-6.017486572E-2,1.508862305E-1,9.782756653E0,9.784105243E0
4.864609041E0,-6.167175293E-2,1.399589539E-1,9.790989532E0,9.792184023E0
4.874596042E0,-6.301895142E-2,1.308279419E-1,9.790690155E0,9.791767003E0
4.884583042E0,-5.269042969E-2,1.389111328E-1,9.791588287E0,9.792715342E0
4.894571041E0,-6.271957397E-2,1.486408997E-1,9.787247314E0,9.788576907E0
4.904558042E0,-5.852828979E-2,1.414558411E-1,9.782457275E0,9.783655026E0
4.914545042E0,-5.837860107E-2,1.354682922E-1,9.789043579E0,9.790154948E0
4.924533042E0,-5.927673340E-2,1.374142456E-1,9.802964630E0,9.804106892E0
4.934520042E0,-5.298980713E-2,1.375639343E-1,9.796528015E0,9.797637108E0
4.944508041E0,-5.583389282E-2,1.402583313E-1,9.795031128E0,9.796194395E0
4.954495042E0,-5.628295898E-2,1.395098877E-1,9.786947937E0,9.788104040E0
4.964482042E0,-5.478607178E-2,1.371148682E-1,9.785301361E0,9.786415316E0
4.974470041E0,-5.568420410E-2,1.317260742E-1,9.780810699E0,9.781856185E0
4.984457042E0,-5.807922363E-2,1.410067749E-1,9.784852295E0,9.786040596E0
4.994444042E0,-6.301895142E-2,1.475930786E-1,9.794132996E0,9.795447730E0
5.004432042E0,-6.062393188E-2,1.429527283E-1,9.799072723E0,9.800302903E0
5.014419042E0,-6.212081909E-2,1.426533508E-1,9.792636108E0,9.793872111E0
5.024407041E0,-6.361770630E-2,1.320254517E-1,9.801018677E0,9.802114315E0
5.034394042E0,-5.912704468E-2,1.360670471E-1,9.808652802E0,9.809774719E0
5.044381042E0,-6.137237549E-2,1.434017944E-1,9.798174591E0,9.799416103E0
5.054369041E0,-5.433700562E-2,1.431024170E-1,9.783056030E0,9.784253477E0
5.064356042E0,-6.227050781E-2,1.381626892E-1,9.794132996E0,9.795305390E0
5.074343042E0,-6.256988525E-2,1.357676697E-1,9.785900116E0,9.787041889E0
5.084331042E0,-5.628295898E-2,1.371148682E-1,9.796078949E0,9.797200163E0
5.094318042E0,-5.927673340E-2,1.398092651E-1,9.789792023E0,9.790969728E0
5.104306041E0,-5.493576050E-2,1.457968140E-1,9.797875214E0,9.799113906E0
5.114293042E0,-6.212081909E-2,1.321751404E-1,9.790989532E0,9.792078701E0
5.124280042E0,-5.598358154E-2,1.375639343E-1,9.793833618E0,9.794959670E0
5.134268041E0,-6.062393188E-2,1.401086426E-1,9.786648560E0,9.787839175E0
5.144255042E0,-5.313949585E-2,1.423539734E-1,9.795180817E0,9.796359308E0
5.154242042E0,-5.478607178E-2,1.405577087E-1,9.795180817E0,9.796342441E0
5.164230042E0,-5.882766724E-2,1.398092651E-1,9.794582062E0,9.795756484E0
5.174217042E0,-5.807922363E-2,1.360670471E-1,9.790540466E0,9.791658187E0
5.184205041E0,-5.852828979E-2,1.317260742E-1,9.798923035E0,9.799983161E0
5.194192042E0,-5.194198608E-2,1.432521057E-1,9.783654785E0,9.784841342E0
5.204179042E0,-5.792953491E-2,1.402583313E-1,9.789043579E0,9.790219733E0
5.214167041E0,-6.002517700E-2,1.378633118E-1,9.787846069E0,9.789000970E0
5.224154042E0,-6.032455444E-2,1.407073975E-1,9.795779572E0,9.796975811E0
5.234141042E0,-5.942642212E-2,1.419049072E-1,9.781409454E0,9.782619251E0
5.244129042E0,-6.271957397E-2,1.347198486E-1,9.795929260E0,9.797056357E0
5.254116042E0,-5.688171387E-2,1.422042847E-1,9.797875214E0,9.799072216E0
5.264104042E0,-6.227050781E-2,1.435514832E-1,9.787546692E0,9.788797418E0
5.274091042E0,-6.137237549E-2,1.320254517E-1,9.781858521E0,9.782941961E0
5.284078042E0,-5.538482666E-2,1.383123779E-1,9.784403229E0,9.785537509E0
5.294066041E0,-6.062393188E-2,1.426533508E-1,9.792785797E0,9.794012401E0
5.304053042E0,-5.538482666E-2,1.492396545E-1,9.799970856E0,9.801263629E0
5.314040042E0,-5.852828979E-2,1.469943237E-1,9.790390778E0,9.791669136E0
5.324028042E0,-6.316864014E-2,1.339714050E-1,9.790839844E0,9.791960144E0
5.334015042E0,-5.912704468E-2,1.425036621E-1,9.783954163E0,9.785170533E0
5.344003042E0,-6.107299805E-2,1.293310547E-1,9.787546692E0,9.788591660E0
5.353990042E0,-5.373825073E-2,1.348695374E-1,9.799222412E0,9.800297826E0
5.363977042E0,-5.508544922E-2,1.432521057E-1,9.793534241E0,9.794736775E0
5.373965041E0,-5.777984619E-2,1.342707825E-1,9.790091400E0,9.791182604E0
5.383952042E0,-5.688171387E-2,1.369651794E-1,9.795629883E0,9.796752512E0
5.393939042E0,-6.107299805E-2,1.407073975E-1,9.790241089E0,9.791442645E0
5.403927041E0,-5.777984619E-2,1.410067749E-1,9.782157898E0,9.783344753E0
5.413914042E0,-5.703140259E-2,1.371148682E-1,9.790540466E0,9.791666645E0
5.423902042E0,-6.466552734E-2,1.356179810E-1,9.795929260E0,9.797081399E0
5.433889042E0,-6.466552734E-2,1.444496155E-1,9.789492645E0,9.790771858E0
5.443876042E0,-5.313949585E-2,1.432521057E-1,9.796528015E0,9.797719435E0
5.453864041E0,-6.376739502E-2,1.465452576E-1,9.789193268E0,9.790497772E0
5.463851042E0,-5.763015747E-2,1.411564636E-1,9.784702606E0,9.785890428E0
5.473838042E0,-5.837860107E-2,1.416055298E-1,9.785301361E0,9.786500034E0
5.483826041E0,-6.047424316E-2,1.474433899E-1,9.792486420E0,9.793783077E0
5.493813042E0,-5.748046875E-2,1.438508606E-1,9.790839844E0,9.792065253E0
5.503801042E0,-6.421646118E-2,1.408570862E-1,9.787995758E0,9.789219858E0
5.513788042E0,-6.795867920E-2,1.392105103E-1,9.788295135E0,9.789520908E0
5.523775042E0,-5.538482666E-2,1.300794983E-1,9.791887665E0,9.792908260E0
5.533763041E0,-6.271957397E-2,1.453477478E-1,9.794582062E0,9.795861242E0
5.543750042E0,-6.541397095E-2,1.405577087E-1,9.790540466E0,9.791767873E0
5.553738042E0,-6.077362061E-2,1.423539734E-1,9.792935486E0,9.794158643E0
5.563725041E0,-6.017486572E-2,1.434017944E-1,9.786498871E0,9.787734428E0
5.573712042E0,-5.239105225E-2,1.380130005E-1,9.780810699E0,9.781924675E0
5.583700042E0,-5.718109131E-2,1.381626892E-1,9.791139221E0,9.792280932E0
5.593687042E0,-6.107299805E-2,1.477427673E-1,9.786648560E0,9.787954223E0
5.603674042E0,-5.149291992E-2,1.377136230E-1,9.795629883E0,9.796733199E0
5.613662041E0,-6.182144165E-2,1.374142456E-1,9.798773346E0,9.799931819E0
5.623649042E0,-6.541397095E-2,1.447489929E-1,9.788594513E0,9.789883237E0
5.633637042E0,-5.837860107E-2,1.460961914E-1,9.793833618E0,9.795097197E0
5.643624041E0,-5.583389282E-2,1.393601990E-1,9.794132996E0,9.795283550E0
5.653611042E0,-6.197113037E-2,1.351689148E-1,9.801467743E0,9.802595624E0
5.663599042E0,-5.957611084E-2,1.408570862E-1,9.790091400E0,9.791285904E0
5.673586042E0,-5.733078003E-2,1.426533508E-1,9.786349182E0,9.787556749E0
5.683573042E0,-6.376739502E-2,1.463955688E-1,9.781409454E0,9.782712756E0
5.693561041E0,-5.897735596E-2,1.411564636E-1,9.790690155E0,9.791885272E0
5.703547958E0,-6.182144165E-2,1.392105103E-1,9.788744202E0,9.789929239E0
5.713535958E0,-5.792953491E-2,1.369651794E-1,9.798174591E0,9.799303067E0
5.723522958E0,-5.149291992E-2,1.338217163E-1,9.796078949E0,9.797128281E0
5.733509958E0,-5.912704468E-2,1.327738953E-1,9.785301361E0,9.786380722E0
5.743497958E0,-5.463638306E-2,1.413061523E-1,9.798024902E0,9.799196118E0
5.753484958E0,-5.239105225E-2,1.468446350E-1,9.789792023E0,9.791033450E0
5.763471958E0,-5.358856201E-2,1.350192261E-1,9.792336731E0,9.793414143E0
5.773459958E0,-5.628295898E-2,1.386117554E-1,9.791588287E0,9.792731089E0
5.783446958E0,-6.077362061E-2,1.429527283E-1,9.791139221E0,9.792371325E0
5.793434958E0,-6.451583862E-2,1.484912109E-1,9.796977081E0,9.798314746E0
5.803421958E0,-5.598358154E-2,1.411564636E-1,9.787397003E0,9.788574943E0
5.813408958E0,-5.643264771E-2,1.405577087E-1,9.783804474E0,9.784976806E0
5.823396958E0,-5.523513794E-2,1.462458801E-1,9.802066498E0,9.803313032E0
5.833383958E0,-6.047424316E-2,1.472937012E-1,9.790989532E0,9.792284136E0
5.843371958E0,-5.777984619E-2,1.471440125E-1,9.783654785E0,9.784931825E0
5.853358958E0,-5.688171387E-2,1.465452576E-1,9.785001984E0,9.786264602E0
5.863345958E0,-6.451583862E-2,1.390608215E-1,9.788145447E0,9.789345815E0
5.873333958E0,-5.418731689E-2,1.426533508E-1,9.784253540E0,9.785443453E0
5.883320958E0,-4.984634399E-2,1.384620667E-1,9.788145447E0,9.789251641E0
5.893307958E0,-5.493576050E-2,1.366658020E-1,9.787397003E0,9.788505278E0
5.903295958E0,-5.703140259E-2,1.320254517E-1,9.786498871E0,9.787555540E0
5.913282958E0,-6.212081909E-2,1.336720276E-1,9.796228638E0,9.797337533E0
5.923270958E0,-5.568420410E-2,1.314266968E-1,9.788594513E0,9.789635144E0
5.933257958E0,-5.284011841E-2,1.333726501E-1,9.792336731E0,9.793387514E0
5.943244958E0,-5.718109131E-2,1.327738953E-1,9.790989532E0,9.792056710E0
5.953232958E0,-5.164260864E-2,1.377136230E-1,9.785001984E0,9.786107286E0
5.963219958E0,-5.089416504E-2,1.372645569E-1,9.806257782E0,9.807350481E0
5.973207958E0,-4.460723877E-2,1.437011719E-1,9.786049805E0,9.787206476E0
5.983194958E0,-5.912704468E-2,1.447489929E-1,9.788594513E0,9.789843248E0
5.993181958E0,-6.167175293E-2,1.354682922E-1,9.792935486E0,9.794066596E0
6.003169958E0,-5.777984619E-2,1.389111328E-1,9.794731750E0,9.795887141E0
6.013156958E0,-5.298980713E-2,1.442999268E-1,9.785600739E0,9.786808070E0
6.023144958E0,-5.837860107E-2,1.440005493E-1,9.791887665E0,9.793120456E0
6.033131958E0,-5.059478760E-2,1.411564636E-1,9.789792023E0,9.790940344E0
6.043118958E0,-6.077362061E-2,1.389111328E-1,9.783954163E0,9.785128961E0
6.053106958E0,-5.613327026E-2,1.354682922E-1,9.787247314E0,9.788345754E0
6.063093958E0,-5.538482666E-2,1.445993042E-1,9.786498871E0,9.787723769E0
6.073080958E0,-7.065307617E-2,1.508862305E-1,9.784702606E0,9.786120968E0
6.083068958E0,-5.508544922E-2,1.432521057E-1,9.788295135E0,9.789498314E0
6.093055958E0,-6.032455444E-2,1.320254517E-1,9.789342957E0,9.790419056E0
6.103043958E0,-5.807922363E-2,1.360670471E-1,9.791887665E0,9.793005232E0
6.113030958E0,-6.107299805E-2,1.404080200E-1,9.793384552E0,9.794581426E0
6.123017958E0,-6.152206421E-2,1.431024170E-1,9.797126770E0,9.798364977E0
6.133005958E0,-5.568420410E-2,1.338217163E-1,9.789342957E0,9.790415951E0
6.142992958E0,-6.406677246E-2,1.404080200E-1,9.780661011E0,9.781878591E0
6.152980958E0,-5.418731689E-2,1.344204712E-1,9.789193268E0,9.790266082E0
6.162967958E0,-5.942642212E-2,1.448986816E-1,9.798623657E0,9.799875137E0
6.172954958E0,-5.343887329E-2,1.395098877E-1,9.795929260E0,9.797068378E0
6.182942958E0,-5.718109131E-2,1.413061523E-1,9.792336731E0,9.793523154E0
6.192929958E0,-5.733078003E-2,1.416055298E-1,9.787846069E0,9.789038238E0
6.202916958E0,-5.583389282E-2,1.390608215E-1,9.792636108E0,9.793782583E0
6.212904958E0,-4.879852295E-2,1.431024170E-1,9.795330505E0,9.796497298E0
6.222891958E0,-5.493576050E-2,1.429527283E-1,9.787097626E0,9.788295733E0
6.232879958E0,-5.777984619E-2,1.432521057E-1,9.797875214E0,9.799092732E0
6.242866958E0,-5.493576050E-2,1.401086426E-1,9.793234863E0,9.794391122E0
6.252853958E0,-5.658233643E-2,1.428030396E-1,9.795929260E0,9.797133476E0
6.262841958E0,-5.972579956E-2,1.428030396E-1,9.792187042E0,9.793410384E0
6.272828958E0,-5.433700562E-2,1.468446350E-1,9.802814941E0,9.804065312E0
6.282816958E0,-6.032455444E-2,1.360670471E-1,9.789941711E0,9.791073077E0
6.292803958E0,-5.583389282E-2,1.396595764E-1,9.792336731E0,9.793491761E0
6.302790958E0,-5.149291992E-2,1.347198486E-1,9.786049805E0,9.787112533E0
6.312778958E0,-5.209167480E-2,1.407073975E-1,9.787995758E0,9.789145676E0
6.322765958E0,-5.074447632E-2,1.393601990E-1,9.791438599E0,9.792561774E0
6.332753958E0,-6.182144165E-2,1.338217163E-1,9.787995758E0,9.789105736E0
6.342740958E0,-5.912704468E-2,1.398092651E-1,9.779613190E0,9.780791214E0
6.352727958E0,-5.658233643E-2,1.374142456E-1,9.782157898E0,9.783286635E0
6.362715958E0,-5.643264771E-2,1.380130005E-1,9.786199493E0,9.787335325E0
6.372702958E0,-6.286926270E-2,1.398092651E-1,9.786498871E0,9.787699389E0
6.382690958E0,-5.583389282E-2,1.398092651E-1,9.790540466E0,9.791697844E0
6.392677958E0,-5.673202515E-2,1.434017944E-1,9.788444824E0,9.789659579E0
6.402664958E0,-5.703140259E-2,1.398092651E-1,9.777367859E0,9.778533707E0
6.412652958E0,-6.481521606E-2,1.442999268E-1,9.787846069E0,9.789124279E0
6.422639958E0,-5.418731689E-2,1.463955688E-1,9.784702606E0,9.785947732E0
6.432626958E0,-5.224136353E-2,1.432521057E-1,9.785301361E0,9.786489312E0
6.442614958E0,-5.448669434E-2,1.407073975E-1,9.796228638E0,9.797390617E0
6.452601958E0,-5.792953491E-2,1.344204712E-1,9.793534241E0,9.794627998E0
6.462589958E0,-5.897735596E-2,1.402583313E-1,9.802515564E0,9.803696349E0
6.472576958E0,-5.209167480E-2,1.444496155E-1,9.788295135E0,9.789499522E0
6.482563958E0,-6.661148071E-2,1.453477478E-1,9.794881439E0,9.796186271E0
6.492551958E0,-6.242019653E-2,1.393601990E-1,9.795031128E0,9.796221330E0
6.502538958E0,-5.673202515E-2,1.402583313E-1,9.784852295E0,9.786021937E0
6.512526958E0,-5.104385376E-2,1.375639343E-1,9.787696381E0,9.788796134E0
6.522513958E0,-5.628295898E-2,1.398092651E-1,9.796078949E0,9.797238242E0
6.532500958E0,-5.478607178E-2,1.404080200E-1,9.784403229E0,9.785563983E0
6.542488958E0,-6.107299805E-2,1.384620667E-1,9.793983307E0,9.795152407E0
6.552475958E0,-5.748046875E-2,1.386117554E-1,9.807155914E0,9.808303847E0
6.562463958E0,-5.478607178E-2,1.417552185E-1,9.797426147E0,9.798604756E0
6.572450958E0,-5.942642212E-2,1.423539734E-1,9.799372101E0,9.800586193E0
6.582437958E0,-5.763015747E-2,1.399589539E-1,9.792935486E0,9.794105124E0
6.592425958E0,-6.062393188E-2,1.459465027E-1,9.787397003E0,9.788672828E0
6.602412958E0,-6.256988525E-2,1.471440125E-1,9.787247314E0,9.788553333E0
6.612400958E0,-5.942642212E-2,1.392105103E-1,9.794132996E0,9.795302558E0
6.622387958E0,-5.508544922E-2,1.357676697E-1,9.799521790E0,9.800617051E0
6.632374958E0,-5.658233643E-2,1.428030396E-1,9.800719299E0,9.801922926E0
6.642362958E0,-6.227050781E-2,1.435514832E-1,9.796378326E0,9.797627925E0
6.652349958E0,-6.286926270E-2,1.451980591E-1,9.793534241E0,9.794812298E0
6.662337958E0,-6.137237549E-2,1.435514832E-1,9.788893890E0,9.790138773E0
6.672324958E0,-5.628295898E-2,1.381626892E-1,9.796078949E0,9.797214884E0
6.682311958E0,-5.733078003E-2,1.420545959E-1,9.793683929E0,9.794881890E0
6.692299958E0,-6.092330933E-2,1.366658020E-1,9.790540466E0,9.791683809E0
6.702287958E0,-5.837860107E-2,1.377136230E-1,9.787995758E0,9.789138576E0
6.712274958E0,-5.792953491E-2,1.389111328E-1,9.798024902E0,9.799180788E0
6.722262958E0,-5.628295898E-2,1.442999268E-1,9.792636108E0,9.793860944E0
6.732249958E0,-5.269042969E-2,1.466949463E-1,9.792037354E0,9.793277859E0
6.742237958E0,-6.062393188E-2,1.348695374E-1,9.799821167E0,9.800936688E0
6.752224958E0,-5.538482666E-2,1.413061523E-1,9.789792023E0,9.790968428E0
6.762211958E0,-5.508544922E-2,1.380130005E-1,9.797575836E0,9.798702683E0
6.772199958E0,-5.748046875E-2,1.249900818E-1,9.792336731E0,9.793303078E0
6.782186958E0,-5.463638306E-2,1.428030396E-1,9.796677704E0,9.797870783E0
6.792174958E0,-5.583389282E-2,1.505868530E-1,9.787846069E0,9.789163626E0
6.802161958E0,-6.032455444E-2,1.428030396E-1,9.797725525E0,9.798951843E0
6.812148958E0,-6.017486572E-2,1.505868530E-1,9.793683929E0,9.795026408E0
6.822136958E0,-5.523513794E-2,1.457968140E-1,9.784702606E0,9.785944652E0
6.832123958E0,-5.044509888E-2,1.471440125E-1,9.784403229E0,9.785639612E0
6.842111958E0,-5.343887329E-2,1.320254517E-1,9.791288910E0,9.792324798E0
6.852098958E0,-5.807922363E-2,1.428030396E-1,9.788744202E0,9.789958067E0
6.862085958E0,-5.673202515E-2,1.383123779E-1,9.797276459E0,9.798416956E0
6.872073958E0,-5.613327026E-2,1.417552185E-1,9.796977081E0,9.798163370E0
6.882060958E0,-5.598358154E-2,1.375639343E-1,9.797426147E0,9.798551786E0
6.892048958E0,-5.897735596E-2,1.351689148E-1,9.792037354E0,9.793147834E0
6.902035958E0,-5.373825073E-2,1.404080200E-1,9.796827393E0,9.797980872E0
6.912022958E0,-5.433700562E-2,1.457968140E-1,9.788295135E0,9.789531699E0
6.922010958E0,-5.837860107E-2,1.354682922E-1,9.787846069E0,9.788957575E0
6.931997958E0,-5.328918457E-2,1.483415222E-1,9.787247314E0,9.788516483E0
6.941985958E0,-6.316864014E-2,1.396595764E-1,9.794582062E0,9.795781380E0
6.951972958E0,-6.062393188E-2,1.448986816E-1,9.778864746E0,9.780126104E0
6.961959958E0,-5.358856201E-2,1.410067749E-1,9.789043579E0,9.790205761E0
6.971947958E0,-5.748046875E-2,1.399589539E-1,9.789193268E0,9.790362473E0
6.981934958E0,-6.541397095E-2,1.444496155E-1,9.790241089E0,9.791525175E0
6.991922958E0,-5.598358154E-2,1.487905884E-1,9.792935486E0,9.794225760E0
7.001909958E0,-5.508544922E-2,1.413061523E-1,9.792336731E0,9.793511142E0
7.011896958E0,-5.897735596E-2,1.380130005E-1,9.782906342E0,9.784057563E0
7.021884958E0,-5.822891235E-2,1.350192261E-1,9.794132996E0,9.795236696E0
7.031871958E0,-6.586303711E-2,1.315763855E-1,9.791139221E0,9.792244765E0
7.041859958E0,-5.807922363E-2,1.371148682E-1,9.789642334E0,9.790774776E0
7.051846958E0,-6.002517700E-2,1.393601990E-1,9.785600739E0,9.786777105E0
7.061833958E0,-6.242019653E-2,1.459465027E-1,9.791737976E0,9.793024520E0
7.071821958E0,-5.987548828E-2,1.392105103E-1,9.787397003E0,9.788570107E0
7.081808958E0,-6.017486572E-2,1.353186035E-1,9.787995758E0,9.789116053E0
7.091796958E0,-6.062393188E-2,1.401086426E-1,9.787546692E0,9.788737198E0
7.101783958E0,-5.807922363E-2,1.381626892E-1,9.798773346E0,9.799919449E0
7.111770958E0,-6.092330933E-2,1.288819885E-1,9.790839844E0,9.791877607E0
7.121758958E0,-5.403762817E-2,1.432521057E-1,9.792935486E0,9.794132257E0
7.131745958E0,-5.927673340E-2,1.380130005E-1,9.795180817E0,9.796332403E0
7.141733958E0,-6.212081909E-2,1.445993042E-1,9.789941711E0,9.791206599E0
7.151720958E0,-5.822891235E-2,1.359173584E-1,9.783505096E0,9.784622430E0
7.161707958E0,-5.523513794E-2,1.297801208E-1,9.790540466E0,9.791556384E0
7.171695958E0,-5.134323120E-2,1.378633118E-1,9.786199493E0,9.787305193E0
7.181682958E0,-5.852828979E-2,1.471440125E-1,9.794282684E0,9.795562782E0
7.191670958E0,-5.583389282E-2,1.463955688E-1,9.784103851E0,9.785358310E0
7.201657958E0,-5.718109131E-2,1.419049072E-1,9.805808716E0,9.807002154E0
7.211644958E0,-5.912704468E-2,1.350192261E-1,9.798174591E0,9.799283214E0
7.221632958E0,-6.331832886E-2,1.372645569E-1,9.783056030E0,9.784223835E0
7.231619958E0,-6.346801758E-2,1.410067749E-1,9.794132996E0,9.795353604E0
7.241607958E0,-6.346801758E-2,1.454974365E-1,9.786947937E0,9.788235163E0
7.251594958E0,-5.628295898E-2,1.408570862E-1,9.790690155E0,9.791865103E0
7.261581958E0,-5.448669434E-2,1.386117554E-1,9.790690155E0,9.791822901E0
7.271569958E0,-6.406677246E-2,1.287322998E-1,9.792636108E0,9.793691771E0
7.281556958E0,-6.361770630E-2,1.395098877E-1,9.794731750E0,9.795931823E0
7.291544958E0,-5.523513794E-2,1.484912109E-1,9.798923035E0,9.800203733E0
7.301531958E0,-5.777984619E-2,1.278341675E-1,9.784552917E0,9.785558537E0
7.311518958E0,-5.777984619E-2,1.437011719E-1,9.795031128E0,9.796255577E0
7.321506958E0,-5.688171387E-2,1.478924561E-1,9.789043579E0,9.790325934E0
7.331493958E0,-5.598358154E-2,1.465452576E-1,9.789941711E0,9.791198516E0
7.341481958E0,-5.718109131E-2,1.408570862E-1,9.786049805E0,9.787230516E0
7.351468958E0,-5.269042969E-2,1.387614441E-1,9.788893890E0,9.790019133E0
7.361455958E0,-6.466552734E-2,1.351689148E-1,9.783954163E0,9.785101498E0
7.371443958E0,-5.792953491E-2,1.348695374E-1,9.795180817E0,9.796280562E0
7.381430958E0,-5.763015747E-2,1.402583313E-1,9.803862762E0,9.805035375E0
7.391418958E0,-6.212081909E-2,1.351689148E-1,9.790839844E0,9.791969898E0
7.401405958E0,-7.768844604E-2,1.401086426E-1,9.789941711E0,9.791252455E0
7.411392958E0,-6.421646118E-2,1.402583313E-1,9.792935486E0,9.794150376E0
7.421380958E0,-5.688171387E-2,1.481918335E-1,9.784552917E0,9.785840390E0
7.431367958E0,-5.328918457E-2,1.392105103E-1,9.797426147E0,9.798560018E0
7.441355958E0,-6.346801758E-2,1.279838562E-1,9.796677704E0,9.797719229E0
7.451342958E0,-5.059478760E-2,1.314266968E-1,9.786798248E0,9.787811439E0
7.461329958E0,-6.556365967E-2,1.332229614E-1,9.795031128E0,9.796156478E0
7.471317958E0,-6.047424316E-2,1.420545959E-1,9.786199493E0,9.787417288E0
7.481304958E0,-5.493576050E-2,1.401086426E-1,9.786049805E0,9.787206913E0
7.491292958E0,-5.733078003E-2,1.357676697E-1,9.789941711E0,9.791050934E0
7.501279958E0,-6.646179199E-2,1.448986816E-1,9.784103851E0,9.785402443E0
7.511266958E0,-5.972579956E-2,1.474433899E-1,9.780361633E0,9.781655300E0
7.521254958E0,-5.224136353E-2,1.508862305E-1,9.802066498E0,9.803366944E0
7.531241958E0,-6.077362061E-2,1.428030396E-1,9.797426147E0,9.798655278E0
7.541229958E0,-5.568420410E-2,1.417552185E-1,9.785301361E0,9.786486499E0
7.551216958E0,-5.897735596E-2,1.440005493E-1,9.793833618E0,9.795069751E0
7.561203958E0,-5.179229736E-2,1.365161133E-1,9.780062256E0,9.781152121E0
7.571191958E0,-5.882766724E-2,1.435514832E-1,9.788145447E0,9.789374802E0
7.581178958E0,-5.927673340E-2,1.411564636E-1,9.801767120E0,9.802962693E0
7.591166958E0,-5.837860107E-2,1.396595764E-1,9.792935486E0,9.794105283E0
7.601153958E0,-5.613327026E-2,1.374142456E-1,9.787397003E0,9.788522550E0
7.611140958E0,-5.298980713E-2,1.505868530E-1,9.797875214E0,9.799175630E0
7.621128958E0,-6.286926270E-2,1.353186035E-1,9.790241089E0,9.791378057E0
7.631115958E0,-5.583389282E-2,1.326242065E-1,9.793534241E0,9.794591341E0
7.641103958E0,-6.002517700E-2,1.327738953E-1,9.795929260E0,9.797012912E0
7.651090958E0,-6.077362061E-2,1.392105103E-1,9.788444824E0,9.789623337E0
7.661077958E0,-6.047424316E-2,1.410067749E-1,9.790839844E0,9.792041916E0
7.671065958E0,-5.373825073E-2,1.350192261E-1,9.798623657E0,9.799701198E0
7.681052958E0,-6.301895142E-2,1.350192261E-1,9.792486420E0,9.793619957E0
7.691040958E0,-5.957611084E-2,1.351689148E-1,9.789642334E0,9.790756711E0
7.701027958E0,-5.598358154E-2,1.462458801E-1,9.787397003E0,9.788649657E0
7.711014166E0,-6.047424316E-2,1.351689148E-1,9.795180817E0,9.796300067E0
7.721002167E0,-5.508544922E-2,1.396595764E-1,9.799372101E0,9.800522066E0
7.730989167E0,-5.957611084E-2,1.386117554E-1,9.792636108E0,9.793798266E0
7.740977166E0,-5.658233643E-2,1.378633118E-1,9.781110077E0,9.782245253E0
7.750964167E0,-5.358856201E-2,1.420545959E-1,9.790241089E0,9.791418274E0
7.760952167E0,-6.421646118E-2,1.387614441E-1,9.795929260E0,9.797122463E0
7.770939167E0,-5.718109131E-2,1.377136230E-1,9.802964630E0,9.804098646E0
7.780926167E0,-5.867797852E-2,1.371148682E-1,9.796228638E0,9.797363886E0
7.790914166E0,-6.286926270E-2,1.431024170E-1,9.794582062E0,9.795829144E0
7.800901167E0,-6.256988525E-2,1.386117554E-1,9.787546692E0,9.788728133E0
7.810889167E0,-5.239105225E-2,1.438508606E-1,9.793085175E0,9.794281757E0
7.820876166E0,-6.002517700E-2,1.396595764E-1,9.791887665E0,9.793067541E0
7.830863167E0,-5.763015747E-2,1.336720276E-1,9.788145447E0,9.789227790E0
7.840851167E0,-6.526428223E-2,1.404080200E-1,9.786947937E0,9.788172647E0
7.850838167E0,-5.703140259E-2,1.393601990E-1,9.790241089E0,9.791399002E0
7.860826167E0,-5.613327026E-2,1.354682922E-1,9.797875214E0,9.798972462E0
7.870813166E0,-6.047424316E-2,1.426533508E-1,9.795480194E0,9.796705535E0
7.880800167E0,-6.047424316E-2,1.419049072E-1,9.794582062E0,9.795796645E0
7.890788167E0,-5.478607178E-2,1.398092651E-1,9.792037354E0,9.793188637E0
7.900775166E0,-5.254074097E-2,1.323248291E-1,9.795330505E0,9.796365147E0
7.910763167E0,-6.346801758E-2,1.299298096E-1,9.791887665E0,9.792955324E0
7.920750167E0,-6.481521606E-2,1.426533508E-1,9.790989532E0,9.792243207E0
7.930737167E0,-5.748046875E-2,1.414558411E-1,9.782307587E0,9.783499143E0
7.940725167E0,-6.017486572E-2,1.442999268E-1,9.790839844E0,9.792088047E0
7.950712166E0,-6.032455444E-2,1.329235840E-1,9.789941711E0,9.791029897E0
7.960700167E0,-6.286926270E-2,1.359173584E-1,9.788744202E0,9.789889638E0
7.970687167E0,-5.777984619E-2,1.510359192E-1,9.796677704E0,9.798012267E0
7.980674166E0,-5.553451538E-2,1.359173584E-1,9.791737976E0,9.792838720E0
7.990662167E0,-5.508544922E-2,1.404080200E-1,9.782008209E0,9.783170929E0
8.000649167E0,-6.571334839E-2,1.440005493E-1,9.778565369E0,9.779846373E0
8.010637167E0,-6.002517700E-2,1.416055298E-1,9.795779572E0,9.796986912E0
8.020624167E0,-5.074447632E-2,1.431024170E-1,9.790690155E0,9.791867392E0
8.030612167E0,-5.628295898E-2,1.425036621E-1,9.779014435E0,9.780214639E0
8.040599167E0,-6.765930176E-2,1.372645569E-1,9.791288910E0,9.792484764E0
8.050586167E0,-5.673202515E-2,1.389111328E-1,9.788893890E0,9.790043842E0
8.060574166E0,-5.972579956E-2,1.366658020E-1,9.790839844E0,9.791975774E0
8.070561167E0,-6.182144165E-2,1.341210938E-1,9.779014435E0,9.780129533E0
8.080549167E0,-5.852828979E-2,1.419049072E-1,9.791438599E0,9.792641747E0
8.090536167E0,-5.643264771E-2,1.342707825E-1,9.799970856E0,9.801053110E0
8.100523167E0,-6.212081909E-2,1.375639343E-1,9.800569611E0,9.801731864E0
8.110511167E0,-5.313949585E-2,1.389111328E-1,9.797276459E0,9.798405284E0
8.120498167E0,-6.676116943E-2,1.360670471E-1,9.787397003E0,9.788570447E0
8.130486167E0,-5.164260864E-2,1.457968140E-1,9.789043579E0,9.790265464E0
8.140473166E0,-5.209167480E-2,1.413061523E-1,9.785900116E0,9.787058907E0
8.150460167E0,-5.658233643E-2,1.426533508E-1,9.797276459E0,9.798478328E0
8.160448167E0,-6.316864014E-2,1.365161133E-1,9.796977081E0,9.798131804E0
8.170435166E0,-5.343887329E-2,1.399589539E-1,9.794282684E0,9.795428399E0
8.180423167E0,-6.436614990E-2,1.484912109E-1,9.783954163E0,9.785292622E0
8.190410167E0,-5.373825073E-2,1.445993042E-1,9.783654785E0,9.784870858E0
8.200397167E0,-5.284011841E-2,1.441502380E-1,9.793384552E0,9.794587911E0
8.210385167E0,-5.748046875E-2,1.306782532E-1,9.793384552E0,9.794425036E0
8.220372166E0,-5.972579956E-2,1.384620667E-1,9.793534241E0,9.794695087E0
8.230360167E0,-6.256988525E-2,1.342707825E-1,9.792785797E0,9.793906131E0
8.240347167E0,-6.706054688E-2,1.359173584E-1,9.789193268E0,9.790366463E0
8.250335166E0,-5.942642212E-2,1.320254517E-1,9.795031128E0,9.796101113E0
8.260322167E0,-6.421646118E-2,1.330732727E-1,9.791588287E0,9.792703071E0
8.270309167E0,-5.807922363E-2,1.422042847E-1,9.779613190E0,9.780819464E0
8.280297167E0,-5.942642212E-2,1.371148682E-1,9.792636108E0,9.793776286E0
8.290284167E0,-6.915618896E-2,1.371148682E-1,9.796528015E0,9.797731585E0
8.300272166E0,-6.511459351E-2,1.383123779E-1,9.800120544E0,9.801312816E0
8.310259167E0,-6.227050781E-2,1.420545959E-1,9.794582062E0,9.795810068E0
8.320246167E0,-5.613327026E-2,1.499880981E-1,9.785301361E0,9.786611778E0
8.330234166E0,-5.807922363E-2,1.371148682E-1,9.777367859E0,9.778501722E0
8.340221167E0,-5.523513794E-2,1.383123779E-1,9.793833618E0,9.794965961E0
8.350209167E0,-5.987548828E-2,1.417552185E-1,9.790989532E0,9.792198713E0
8.360196167E0,-5.987548828E-2,1.416055298E-1,9.798773346E0,9.799979402E0
8.370183167E0,-5.643264771E-2,1.353186035E-1,9.784852295E0,9.785950654E0
8.380171167E0,-5.718109131E-2,1.438508606E-1,9.792037354E0,9.793260860E0
8.390158167E0,-5.089416504E-2,1.393601990E-1,9.792187042E0,9.793310909E0
8.400146167E0,-5.209167480E-2,1.408570862E-1,9.801018677E0,9.802169217E0
8.410133166E0,-5.418731689E-2,1.365161133E-1,9.800569611E0,9.801670144E0
8.420121167E0,-6.182144165E-2,1.387614441E-1,9.785600739E0,9.786779779E0
8.430108167E0,-6.795867920E-2,1.419049072E-1,9.801617432E0,9.802880172E0
8.440095167E0,-6.167175293E-2,1.333726501E-1,9.785151672E0,9.786254898E0
8.450083167E0,-5.957611084E-2,1.481918335E-1,9.785600739E0,9.786904104E0
8.460070167E0,-4.969665527E-2,1.317260742E-1,9.787097626E0,9.788110208E0
8.470058167E0,-5.688171387E-2,1.341210938E-1,9.793983307E0,9.795066769E0
8.480045167E0,-5.538482666E-2,1.395098877E-1,9.785750427E0,9.786901548E0
8.490032166E0,-5.867797852E-2,1.320254517E-1,9.782906342E0,9.783973135E0
8.500020167E0,-5.373825073E-2,1.356179810E-1,9.789492645E0,9.790579466E0
8.510007167E0,-5.748046875E-2,1.309776306E-1,9.785451050E0,9.786496380E0
8.519995166E0,-5.583389282E-2,1.445993042E-1,9.787546692E0,9.788774010E0
8.529982167E0,-6.855743408E-2,1.451980591E-1,9.779912567E0,9.781230619E0
8.539970167E0,-6.556365967E-2,1.423539734E-1,9.800569611E0,9.801822685E0
8.549957167E0,-5.837860107E-2,1.471440125E-1,9.795929260E0,9.797208250E0
8.559944167E0,-5.373825073E-2,1.386117554E-1,9.786199493E0,9.787328621E0
8.569932166E0,-5.628295898E-2,1.354682922E-1,9.791588287E0,9.792687099E0
8.579919167E0,-6.316864014E-2,1.381626892E-1,9.792935486E0,9.794113775E0
8.589907167E0,-5.822891235E-2,1.371148682E-1,9.792336731E0,9.793469750E0
8.599894166E0,-5.553451538E-2,1.393601990E-1,9.792486420E0,9.793635465E0
8.609881167E0,-6.361770630E-2,1.303788757E-1,9.797725525E0,9.798799484E0
8.619869167E0,-5.628295898E-2,1.402583313E-1,9.782008209E0,9.783175598E0
8.629856167E0,-6.032455444E-2,1.351689148E-1,9.784403229E0,9.785522788E0
8.639844167E0,-5.792953491E-2,1.405577087E-1,9.791438599E0,9.792618758E0
8.649831166E0,-5.568420410E-2,1.414558411E-1,9.790241089E0,9.791421299E0
8.659818167E0,-5.852828979E-2,1.457968140E-1,9.789792023E0,9.791052554E0
8.669806167E0,-6.107299805E-2,1.411564636E-1,9.796078949E0,9.797286248E0
8.679793166E0,-5.373825073E-2,1.369651794E-1,9.800719299E0,9.801823608E0
8.689781167E0,-5.718109131E-2,1.359173584E-1,9.795929260E0,9.797039006E0
8.699768167E0,-5.418731689E-2,1.398092651E-1,9.789492645E0,9.790640896E0
8.709756833E0,-5.733078003E-2,1.383123779E-1,9.780960388E0,9.782106279E0
8.719743833E0,-6.152206421E-2,1.270857239E-1,9.790989532E0,9.792007545E0
8.729730833E0,-6.077362061E-2,1.375639343E-1,9.790839844E0,9.791994798E0
8.739718833E0,-6.661148071E-2,1.434017944E-1,9.794881439E0,9.796157592E0
8.749705833E0,-6.017486572E-2,1.451980591E-1,9.793384552E0,9.794645704E0
8.759693833E0,-5.119354248E-2,1.442999268E-1,9.795180817E0,9.796377416E0
8.769680833E0,-5.852828979E-2,1.438508606E-1,9.792336731E0,9.793568159E0
8.779667833E0,-5.763015747E-2,1.398092651E-1,9.789342957E0,9.790510885E0
8.789655833E0,-5.733078003E-2,1.422042847E-1,9.795629883E0,9.796829777E0
8.799642833E0,-6.017486572E-2,1.387614441E-1,9.787846069E0,9.789014579E0
8.809630833E0,-5.568420410E-2,1.405577087E-1,9.793833618E0,9.795000467E0
8.819617833E0,-5.792953491E-2,1.402583313E-1,9.796228638E0,9.797403929E0
8.829605833E0,-5.298980713E-2,1.437011719E-1,9.790989532E0,9.792187395E0
8.839592833E0,-4.221221924E-2,1.402583313E-1,9.786947937E0,9.788043941E0
8.849579833E0,-5.134323120E-2,1.363664246E-1,9.789342957E0,9.790427337E0
8.859567833E0,-5.583389282E-2,1.383123779E-1,9.786498871E0,9.787635459E0
8.869554833E0,-6.212081909E-2,1.326242065E-1,9.791288910E0,9.792384117E0
8.879542833E0,-5.269042969E-2,1.422042847E-1,9.792636108E0,9.793810305E0
8.889529833E0,-5.089416504E-2,1.350192261E-1,9.794282684E0,9.795345512E0
8.899516833E0,-5.957611084E-2,1.353186035E-1,9.798923035E0,9.800038422E0
8.909504833E0,-5.194198608E-2,1.332229614E-1,9.794432373E0,9.795476090E0
8.919491833E0,-5.433700562E-2,1.380130005E-1,9.791438599E0,9.792561970E0
8.929479833E0,-5.882766724E-2,1.504371643E-1,9.796977081E0,9.798308628E0
8.939466833E0,-6.227050781E-2,1.465452576E-1,9.786648560E0,9.787943766E0
8.949454833E0,-5.284011841E-2,1.329235840E-1,9.801617432E0,9.802661120E0
8.959441833E0,-5.014572144E-2,1.362167358E-1,9.790091400E0,9.791167408E0
8.969428833E0,-6.092330933E-2,1.434017944E-1,9.795031128E0,9.796270235E0
8.979416833E0,-6.735992432E-2,1.348695374E-1,9.791288910E0,9.792449421E0
8.989403833E0,-5.882766724E-2,1.453477478E-1,9.787846069E0,9.789101968E0
8.999391833E0,-6.256988525E-2,1.371148682E-1,9.783355408E0,9.784516264E0
9.009378833E0,-5.343887329E-2,1.369651794E-1,9.793085175E0,9.794188706E0
9.019366833E0,-5.269042969E-2,1.419049072E-1,9.790690155E0,9.791860242E0
9.029353833E0,-6.062393188E-2,1.392105103E-1,9.797575836E0,9.798752323E0
9.039340833E0,-6.466552734E-2,1.451980591E-1,9.789792023E0,9.791082267E0
9.049328833E0,-5.912704468E-2,1.362167358E-1,9.797276459E0,9.798401758E0
9.059315833E0,-5.777984619E-2,1.320254517E-1,9.790241089E0,9.791301742E0
9.069303833E0,-6.466552734E-2,1.309776306E-1,9.791438599E0,9.792528101E0
9.079290833E0,-6.062393188E-2,1.341210938E-1,9.790839844E0,9.791946108E0
9.089277833E0,-5.343887329E-2,1.402583313E-1,9.786498871E0,9.787649782E0
9.099265833E0,-5.179229736E-2,1.472937012E-1,9.782008209E0,9.783254187E0
9.109252833E0,-6.152206421E-2,1.410067749E-1,9.796378326E0,9.797586243E0
9.119240833E0,-6.286926270E-2,1.477427673E-1,9.792336731E0,9.793653002E0
9.129227833E0,-5.688171387E-2,1.347198486E-1,9.807455292E0,9.808545472E0
9.139215833E0,-6.256988525E-2,1.404080200E-1,9.790091400E0,9.791298128E0
9.149202833E0,-6.286926270E-2,1.380130005E-1,9.777966614E0,9.779142663E0
9.159189833E0,-5.777984619E-2,1.320254517E-1,9.784103851E0,9.785165170E0
9.169177833E0,-4.805007935E-2,1.392105103E-1,9.793384552E0,9.794491787E0
9.179164833E0,-6.182144165E-2,1.408570862E-1,9.790540466E0,9.791748834E0
9.189152833E0,-6.511459351E-2,1.362167358E-1,9.786498871E0,9.787663412E0
9.199139833E0,-5.583389282E-2,1.410067749E-1,9.786947937E0,9.788122918E0
9.209126833E0,-5.433700562E-2,1.320254517E-1,9.787995758E0,9.789036939E0
9.219114833E0,-5.538482666E-2,1.411564636E-1,9.797575836E0,9.798749149E0
9.229101833E0,-6.047424316E-2,1.456471252E-1,9.792935486E0,9.794205208E0
9.239089833E0,-5.822891235E-2,1.393601990E-1,9.780511322E0,9.781677443E0
9.249076833E0,-5.643264771E-2,1.390608215E-1,9.808503113E0,9.809651159E0
9.259064833E0,-6.017486572E-2,1.326242065E-1,9.797276459E0,9.798358853E0
9.269051833E0,-4.730163574E-2,1.303788757E-1,9.793983307E0,9.794965294E0
9.279038833E0,-5.957611084E-2,1.354682922E-1,9.793384552E0,9.794502639E0
9.289026833E0,-6.242019653E-2,1.342707825E-1,9.792636108E0,9.793755504E0
9.299013833E0,-5.583389282E-2,1.302291870E-1,9.789941711E0,9.790967050E0
9.309001833E0,-6.107299805E-2,1.369651794E-1,9.793534241E0,9.794682348E0
9.318988833E0,-5.373825073E-2,1.411564636E-1,9.792935486E0,9.794100182E0
9.328976833E0,-5.373825073E-2,1.460961914E-1,9.803413696E0,9.804649509E0
9.338963833E0,-5.763015747E-2,1.393601990E-1,9.805808716E0,9.806968292E0
9.348950833E0,-6.047424316E-2,1.419049072E-1,9.783954163E0,9.785170065E0
9.358938833E0,-6.376739502E-2,1.411564636E-1,9.790839844E0,9.792064965E0
9.368925833E0,-5.658233643E-2,1.368154907E-1,9.788444824E0,9.789564450E0
9.378913833E0,-6.047424316E-2,1.252894592E-1,9.792636108E0,9.793624280E0
9.388900833E0,-6.242019653E-2,1.369651794E-1,9.785151672E0,9.786309263E0
9.398888833E0,-5.613327026E-2,1.426533508E-1,9.795779572E0,9.796979041E0
9.408875833E0,-6.107299805E-2,1.450483704E-1,9.782756653E0,9.784022520E0
9.418862833E0,-5.553451538E-2,1.392105103E-1,9.798623657E0,9.799769856E0
9.428850833E0,-7.469467163E-2,1.353186035E-1,9.797725525E0,9.798944631E0
9.438837833E0,-6.256988525E-2,1.294807434E-1,9.800719299E0,9.801774280E0
9.448825833E0,-4.745132446E-2,1.345701599E-1,9.798024902E0,9.799063871E0
9.458812833E0,-5.942642212E-2,1.429527283E-1,9.793833618E0,9.795057117E0
9.468799833E0,-5.628295898E-2,1.387614441E-1,9.782008209E0,9.783154252E0
9.478787833E0,-5.029541016E-2,1.417552185E-1,9.778265991E0,9.779422783E0
9.488774833E0,-5.748046875E-2,1.375639343E-1,9.782157898E0,9.783293974E0
9.498762833E0,-6.466552734E-2,1.356179810E-1,9.788893890E0,9.790046857E0
9.508749833E0,-6.092330933E-2,1.347198486E-1,9.792336731E0,9.793452902E0
9.518737833E0,-5.912704468E-2,1.411564636E-1,9.793384552E0,9.794580243E0
9.528724833E0,-5.313949585E-2,1.350192261E-1,9.786648560E0,9.787724149E0
9.538711833E0,-5.688171387E-2,1.423539734E-1,9.800120544E0,9.801319445E0
9.548699833E0,-6.346801758E-2,1.416055298E-1,9.797575836E0,9.798804651E0
9.558686833E0,-5.688171387E-2,1.342707825E-1,9.786498871E0,9.787585214E0
9.568674833E0,-5.493576050E-2,1.348695374E-1,9.783355408E0,9.784439216E0
9.578661833E0,-6.137237549E-2,1.396595764E-1,9.786199493E0,9.787388410E0
9.588649833E0,-5.733078003E-2,1.393601990E-1,9.798623657E0,9.799782327E0
9.598636833E0,-5.568420410E-2,1.344204712E-1,9.791737976E0,9.792818909E0
9.608623833E0,-6.466552734E-2,1.332229614E-1,9.789193268E0,9.790313316E0
9.618611833E0,-6.182144165E-2,1.405577087E-1,9.798174591E0,9.799377719E0
9.628598833E0,-5.403762817E-2,1.330732727E-1,9.783505096E0,9.784559292E0
9.638586833E0,-6.331832886E-2,1.441502380E-1,9.790390778E0,9.791656657E0
9.648573833E0,-5.822891235E-2,1.365161133E-1,9.797725525E0,9.798849561E0
9.658561833E0,-6.212081909E-2,1.396595764E-1,9.783954163E0,9.785148075E0
9.668548833E0,-6.825805664E-2,1.441502380E-1,9.797875214E0,9.799173289E0
9.678535833E0,-5.673202515E-2,1.451980591E-1,9.790241089E0,9.791482093E0
9.688523833E0,-5.643264771E-2,1.468446350E-1,9.804311829E0,9.805573845E0
9.698510833E0,-5.269042969E-2,1.453477478E-1,9.801318054E0,9.802537317E0
9.708498541E0,-5.298980713E-2,1.408570862E-1,9.792785797E0,9.793942123E0
9.718485542E0,-7.244934082E-2,1.327738953E-1,9.789941711E0,9.791110076E0
9.728473542E0,-6.122268677E-2,1.351689148E-1,9.790690155E0,9.791814570E0
9.738460541E0,-5.688171387E-2,1.363664246E-1,9.793983307E0,9.795097771E0
9.748447542E0,-5.478607178E-2,1.437011719E-1,9.794582062E0,9.795789366E0
9.758435542E0,-5.912704468E-2,1.348695374E-1,9.797126770E0,9.798233450E0
9.768422542E0,-5.478607178E-2,1.360670471E-1,9.791438599E0,9.792537239E0
9.778410542E0,-4.984634399E-2,1.404080200E-1,9.790390778E0,9.791524429E0
9.788397542E0,-5.448669434E-2,1.375639343E-1,9.804162140E0,9.805278573E0
9.798385542E0,-5.568420410E-2,1.387614441E-1,9.799521790E0,9.800662364E0
9.808372542E0,-5.882766724E-2,1.363664246E-1,9.793534241E0,9.794660250E0
9.818359541E0,-5.792953491E-2,1.396595764E-1,9.779463501E0,9.780632239E0
9.828347542E0,-6.122268677E-2,1.387614441E-1,9.789492645E0,9.790667455E0
9.838334542E0,-6.077362061E-2,1.411564636E-1,9.794132996E0,9.795338673E0
9.848322541E0,-6.361770630E-2,1.390608215E-1,9.790989532E0,9.792183676E0
9.858309542E0,-5.538482666E-2,1.326242065E-1,9.789941711E0,9.790996649E0
9.868296542E0,-4.775070190E-2,1.390608215E-1,9.790091400E0,9.791195416E0
9.878284542E0,-5.448669434E-2,1.442999268E-1,9.793983307E0,9.795197818E0
9.888271542E0,-5.957611084E-2,1.372645569E-1,9.799072723E0,9.800215156E0
9.898259541E0,-6.616241455E-2,1.369651794E-1,9.791588287E0,9.792769686E0
9.908246542E0,-5.852828979E-2,1.327738953E-1,9.787097626E0,9.788173190E0
9.918234542E0,-5.328918457E-2,1.347198486E-1,9.785900116E0,9.786972476E0
9.928221541E0,-5.089416504E-2,1.404080200E-1,9.789941711E0,9.791080806E0
9.938208542E0,-6.017486572E-2,1.434017944E-1,9.787995758E0,9.789231127E0
9.948196542E0,-6.286926270E-2,1.419049072E-1,9.796677704E0,9.797907102E0
9.958183542E0,-5.688171387E-2,1.363664246E-1,9.790540466E0,9.791655322E0
9.968171542E0,-6.137237549E-2,1.366658020E-1,9.795929260E0,9.797074777E0
9.978158541E0,-6.271957397E-2,1.302291870E-1,9.794731750E0,9.795798255E0
9.988146542E0,-5.658233643E-2,1.342707825E-1,9.792785797E0,9.793869709E0
9.998133542E0,-6.466552734E-2,1.363664246E-1,9.785301361E0,9.786465151E0
1.000812054E1,-5.658233643E-2,1.323248291E-1,9.788295135E0,9.789353047E0
1.001810854E1,-5.448669434E-2,1.389111328E-1,9.797426147E0,9.798562355E0
1.002809554E1,-6.586303711E-2,1.368154907E-1,9.788744202E0,9.789921831E0
1.003808354E1,-6.062393188E-2,1.440005493E-1,9.792037354E0,9.793283768E0
1.004807054E1,-6.301895142E-2,1.384620667E-1,9.796977081E0,9.798158146E0
1.005805854E1,-6.735992432E-2,1.411564636E-1,9.801767120E0,9.803014903E0
1.006804554E1,-6.376739502E-2,1.414558411E-1,9.795480194E0,9.796709053E0
1.007803354E1,-5.792953491E-2,1.387614441E-1,9.780211945E0,9.781367811E0
1.008802054E1,-5.044509888E-2,1.348695374E-1,9.788893890E0,9.789952916E0
1.009800754E1,-5.194198608E-2,1.432521057E-1,9.790839844E0,9.792025530E0
1.010799554E1,-5.777984619E-2,1.342707825E-1,9.788145447E0,9.789236867E0
1.011798254E1,-5.807922363E-2,1.459465027E-1,9.791438599E0,9.792698474E0
1.012797054E1,-5.313949585E-2,1.405577087E-1,9.786798248E0,9.787951789E0
1.013795754E1,-5.777984619E-2,1.425036621E-1,9.781110077E0,9.782318751E0
1.014794554E1,-6.242019653E-2,1.447489929E-1,9.792486420E0,9.793755094E0
1.015793254E1,-4.969665527E-2,1.431024170E-1,9.788145447E0,9.789317614E0
1.016791954E1,-5.328918457E-2,1.407073975E-1,9.793085175E0,9.794240938E0
1.017790754E1,-5.957611084E-2,1.398092651E-1,9.795929260E0,9.797108043E0
1.018789454E1,-5.807922363E-2,1.384620667E-1,9.789642334E0,9.790793735E0
1.019788254E1,-6.137237549E-2,1.413061523E-1,9.790091400E0,9.791303469E0
1.020786954E1,-5.792953491E-2,1.362167358E-1,9.780960388E0,9.782080400E0
1.021785754E1,-6.421646118E-2,1.360670471E-1,9.787546692E0,9.788703093E0
1.022784454E1,-6.062393188E-2,1.395098877E-1,9.794881439E0,9.796062509E0
1.023783154E1,-5.224136353E-2,1.387614441E-1,9.792486420E0,9.793608843E0
1.024781954E1,-5.718109131E-2,1.326242065E-1,9.790989532E0,9.792054681E0
1.025780654E1,-5.538482666E-2,1.457968140E-1,9.795330505E0,9.796572048E0
1.026779454E1,-5.508544922E-2,1.392105103E-1,9.786498871E0,9.787643952E0
1.027778154E1,-5.628295898E-2,1.339714050E-1,9.797875214E0,9.798952741E0
1.028776954E1,-5.972579956E-2,1.290316772E-1,9.793384552E0,9.794416641E0
1.029775654E1,-5.688171387E-2,1.371148682E-1,9.791887665E0,9.793012818E0
1.030774354E1,-5.448669434E-2,1.404080200E-1,9.782906342E0,9.784065602E0
1.031773154E1,-5.882766724E-2,1.429527283E-1,9.786349182E0,9.787569999E0
1.032771854E1,-6.735992432E-2,1.380130005E-1,9.788594513E0,9.789799155E0
1.033770654E1,-5.822891235E-2,1.431024170E-1,9.794582062E0,9.795800461E0
1.034769354E1,-5.777984619E-2,1.408570862E-1,9.795180817E0,9.796363941E0
1.035768154E1,-6.301895142E-2,1.422042847E-1,9.786349182E0,9.787585185E0
1.036766854E1,-5.852828979E-2,1.442999268E-1,9.787995758E0,9.789234341E0
1.037765654E1,-6.391708374E-2,1.404080200E-1,9.797875214E0,9.799089677E0
1.038764354E1,-5.882766724E-2,1.401086426E-1,9.794432373E0,9.795611091E0
1.039763054E1,-6.122268677E-2,1.345701599E-1,9.783056030E0,9.784173069E0
1.040761854E1,-6.436614990E-2,1.377136230E-1,9.791139221E0,9.792319199E0
1.041760554E1,-5.972579956E-2,1.333726501E-1,9.803114319E0,9.804203475E0
1.042759354E1,-5.613327026E-2,1.368154907E-1,9.796677704E0,9.797793806E0
1.043758054E1,-6.466552734E-2,1.359173584E-1,9.800868988E0,9.802024693E0
1.044756854E1,-5.792953491E-2,1.317260742E-1,9.785151672E0,9.786209728E0
1.045755554E1,-5.508544922E-2,1.368154907E-1,9.787546692E0,9.788657882E0
1.046754354E1,-5.912704468E-2,1.419049072E-1,9.788444824E0,9.789651939E0
1.047753054E1,-5.897735596E-2,1.438508606E-1,9.796677704E0,9.797911279E0
1.048751754E1,-5.134323120E-2,1.416055298E-1,9.797875214E0,9.799032960E0
1.049750554E1,-6.032455444E-2,1.315763855E-1,9.789941711E0,9.791011700E0
1.050749254E1,-5.239105225E-2,1.372645569E-1,9.783654785E0,9.784757909E0
1.051748054E1,-5.209167480E-2,1.381626892E-1,9.785900116E0,9.787014026E0
1.052746754E1,-5.942642212E-2,1.422042847E-1,9.784852295E0,9.786066012E0
1.053745554E1,-6.107299805E-2,1.372645569E-1,9.789642334E0,9.790795090E0
1.054744254E1,-6.032455444E-2,1.356179810E-1,9.788893890E0,9.790019146E0
1.055743054E1,-5.763015747E-2,1.408570862E-1,9.786947937E0,9.788131174E0
1.056741754E1,-6.316864014E-2,1.431024170E-1,9.787995758E0,9.789245606E0
1.057740454E1,-5.658233643E-2,1.303788757E-1,9.784103851E0,9.785136094E0
1.058739254E1,-6.077362061E-2,1.326242065E-1,9.788744202E0,9.789831237E0
1.059737954E1,-6.346801758E-2,1.471440125E-1,9.777966614E0,9.779279659E0
1.060736754E1,-6.107299805E-2,1.444496155E-1,9.798174591E0,9.799429622E0
1.061735454E1,-6.212081909E-2,1.428030396E-1,9.792187042E0,9.793425283E0
1.062734254E1,-6.586303711E-2,1.425036621E-1,9.786947937E0,9.788206943E0
1.063732954E1,-5.688171387E-2,1.399589539E-1,9.787995758E0,9.789161609E0
1.064731754E1,-6.062393188E-2,1.438508606E-1,9.792486420E0,9.793730577E0
1.065730454E1,-5.942642212E-2,1.333726501E-1,9.787696381E0,9.788785430E0
1.066729254E1,-5.703140259E-2,1.341210938E-1,9.789043579E0,9.790128459E0
1.067727954E1,-5.837860107E-2,1.321751404E-1,9.791288910E0,9.792355020E0
1.068726654E1,-5.583389282E-2,1.389111328E-1,9.795779572E0,9.796923555E0
1.069725454E1,-6.376739502E-2,1.390608215E-1,9.783654785E0,9.784850798E0
1.070724054E1,-5.987548828E-2,1.383123779E-1,9.786648560E0,9.787809020E0
1.071722854E1,-5.972579956E-2,1.342707825E-1,9.792486420E0,9.793589030E0
1.072721554E1,-6.122268677E-2,1.323248291E-1,9.788444824E0,9.789530640E0
1.073720354E1,-5.643264771E-2,1.420545959E-1,9.784103851E0,9.785297764E0
1.074719054E1,-5.807922363E-2,1.369651794E-1,9.793384552E0,9.794514467E0
1.075717854E1,-5.763015747E-2,1.395098877E-1,9.796378326E0,9.797541149E0
1.076716554E1,-5.658233643E-2,1.435514832E-1,9.787247314E0,9.788463546E0
1.077715254E1,-6.122268677E-2,1.423539734E-1,9.785301361E0,9.786528271E0
1.078714054E1,-5.867797852E-2,1.296304321E-1,9.784552917E0,9.785587512E0
1.079712754E1,-5.882766724E-2,1.359173584E-1,9.792037354E0,9.793157292E0
1.080711554E1,-6.646179199E-2,1.410067749E-1,9.786648560E0,9.787889972E0
1.081710254E1,-5.733078003E-2,1.405577087E-1,9.781259766E0,9.782437625E0
1.082709054E1,-5.658233643E-2,1.405577087E-1,9.787247314E0,9.788420098E0
1.083707754E1,-5.269042969E-2,1.296304321E-1,9.789941711E0,9.790941683E0
1.084706554E1,-5.822891235E-2,1.380130005E-1,9.793683929E0,9.794829407E0
1.085705254E1,-5.418731689E-2,1.306782532E-1,9.788145447E0,9.789167705E0
1.086704054E1,-5.942642212E-2,1.405577087E-1,9.785001984E0,9.786191894E0
1.087702754E1,-5.493576050E-2,1.344204712E-1,9.787247314E0,9.788324514E0
1.088701454E1,-5.179229736E-2,1.315763855E-1,9.787846069E0,9.788867425E0
1.089700254E1,-5.763015747E-2,1.359173584E-1,9.787696381E0,9.788809693E0
1.090698954E1,-5.343887329E-2,1.453477478E-1,9.784552917E0,9.785778328E0
1.091697754E1,-5.987548828E-2,1.501377869E-1,9.783654785E0,9.784989902E0
1.092696454E1,-5.059478760E-2,1.404080200E-1,9.791438599E0,9.792575967E0
1.093695254E1,-5.598358154E-2,1.396595764E-1,9.787846069E0,9.789002484E0
1.094693954E1,-5.553451538E-2,1.347198486E-1,9.785750427E0,9.786835287E0
1.095692754E1,-5.119354248E-2,1.444496155E-1,9.778415680E0,9.779616541E0
1.096691454E1,-5.284011841E-2,1.392105103E-1,9.783954163E0,9.785087159E0
1.097690254E1,-5.807922363E-2,1.381626892E-1,9.779762878E0,9.780911209E0
1.098688954E1,-5.822891235E-2,1.407073975E-1,9.790091400E0,9.791275647E0
1.099687754E1,-5.538482666E-2,1.369651794E-1,9.788744202E0,9.789859038E0
1.100686454E1,-6.496490479E-2,1.395098877E-1,9.789941711E0,9.791151217E0
1.101685154E1,-5.822891235E-2,1.414558411E-1,9.786349182E0,9.787544670E0
1.102683954E1,-6.227050781E-2,1.416055298E-1,9.787397003E0,9.788619404E0
1.103682654E1,-6.017486572E-2,1.377136230E-1,9.785151672E0,9.786305703E0
1.104681454E1,-4.939727783E-2,1.381626892E-1,9.786648560E0,9.787748416E0
1.105680154E1,-5.957611084E-2,1.466949463E-1,9.798923035E0,9.800202108E0
1.106678954E1,-5.807922363E-2,1.414558411E-1,9.794432373E0,9.795625986E0
1.107677654E1,-6.256988525E-2,1.381626892E-1,9.780960388E0,9.782136272E0
1.108676454E1,-6.107299805E-2,1.456471252E-1,9.787546692E0,9.788820830E0
1.109675154E1,-5.628295898E-2,1.372645569E-1,9.796378326E0,9.797501602E0
1.110673954E1,-6.256988525E-2,1.344204712E-1,9.779014435E0,9.780138402E0
1.111672654E1,-5.343887329E-2,1.401086426E-1,9.780062256E0,9.781211779E0
1.112671454E1,-6.002517700E-2,1.456471252E-1,9.795779572E0,9.797046163E0
1.113670154E1,-5.164260864E-2,1.381626892E-1,9.794881439E0,9.795991951E0
1.114668954E1,-5.478607178E-2,1.393601990E-1,9.797426147E0,9.798570401E0
1.115667654E1,-5.074447632E-2,1.396595764E-1,9.783205719E0,9.784334108E0
1.116666354E1,-5.613327026E-2,1.314266968E-1,9.781409454E0,9.782453416E0
1.117665154E1,-5.313949585E-2,1.309776306E-1,9.787097626E0,9.788118250E0
1.118663854E1,-5.658233643E-2,1.326242065E-1,9.778565369E0,9.779628388E0
1.119662654E1,-5.553451538E-2,1.408570862E-1,9.798324280E0,9.799494043E0
1.120661354E1,-5.583389282E-2,1.342707825E-1,9.776170349E0,9.777251800E0
1.121660154E1,-5.508544922E-2,1.266366577E-1,9.776769104E0,9.777744390E0
1.122658854E1,-6.346801758E-2,1.372645569E-1,9.791139221E0,9.792307031E0
1.123657654E1,-5.538482666E-2,1.413061523E-1,9.790989532E0,9.792165794E0
1.124656354E1,-5.388793945E-2,1.351689148E-1,9.792336731E0,9.793417851E0
1.125655154E1,-6.047424316E-2,1.333726501E-1,9.795779572E0,9.796874135E0
1.126653854E1,-5.987548828E-2,1.408570862E-1,9.780960388E0,9.782157835E0
1.127652654E1,-5.418731689E-2,1.401086426E-1,9.781708832E0,9.782862279E0
1.128651354E1,-5.792953491E-2,1.333726501E-1,9.787397003E0,9.788477113E0
1.129650154E1,-6.286926270E-2,1.408570862E-1,9.786798248E0,9.788013752E0
1.130648854E1,-5.583389282E-2,1.306782532E-1,9.782606964E0,9.783639059E0
1.131647554E1,-6.122268677E-2,1.410067749E-1,9.788893890E0,9.790100854E0
1.132646354E1,-5.972579956E-2,1.440005493E-1,9.787995758E0,9.789237166E0
1.133645054E1,-5.852828979E-2,1.426533508E-1,9.795480194E0,9.796693716E0
1.134643854E1,-5.583389282E-2,1.417552185E-1,9.788444824E0,9.789630434E0
1.135642554E1,-6.002517700E-2,1.442999268E-1,9.791588287E0,9.792835477E0
1.136641354E1,-5.373825073E-2,1.417552185E-1,9.782756653E0,9.783931218E0
1.137640054E1,-5.373825073E-2,1.417552185E-1,9.780211945E0,9.781386815E0
1.138638854E1,-4.760101318E-2,1.380130005E-1,9.785900116E0,9.786989043E0
1.139637554E1,-4.730163574E-2,1.329235840E-1,9.786049805E0,9.787066818E0
1.140636354E1,-5.628295898E-2,1.438508606E-1,9.785451050E0,9.786670174E0
1.141635054E1,-5.867797852E-2,1.377136230E-1,9.786349182E0,9.787493983E0
1.142633854E1,-5.209167480E-2,1.431024170E-1,9.782307587E0,9.783492912E0
1.143632554E1,-5.852828979E-2,1.318757629E-1,9.783954163E0,9.785017927E0
1.144631354E1,-5.987548828E-2,1.414558411E-1,9.790540466E0,9.791745373E0
1.145630054E1,-5.882766724E-2,1.297801208E-1,9.784852295E0,9.785889740E0
1.146628854E1,-5.942642212E-2,1.267863464E-1,9.791139221E0,9.792140396E0
1.147627554E1,-5.763015747E-2,1.344204712E-1,9.790241089E0,9.791333447E0
1.148626354E1,-5.852828979E-2,1.311273193E-1,9.791438599E0,9.792491499E0
1.149625054E1,-4.340972900E-2,1.389111328E-1,9.784403229E0,9.785485540E0
1.150623854E1,-5.568420410E-2,1.429527283E-1,9.785001984E0,9.786204578E0
1.151622554E1,-6.346801758E-2,1.438508606E-1,9.782606964E0,9.783870414E0
1.152621354E1,-6.406677246E-2,1.389111328E-1,9.780960388E0,9.782156560E0
1.153620054E1,-5.987548828E-2,1.335223389E-1,9.775571594E0,9.776666778E0
1.154618854E1,-5.792953491E-2,1.354682922E-1,9.779463501E0,9.780573289E0
1.155617554E1,-6.017486572E-2,1.378633118E-1,9.779762878E0,9.780919653E0
1.156616354E1,-5.673202515E-2,1.381626892E-1,9.786349182E0,9.787488839E0
1.157615054E1,-6.346801758E-2,1.420545959E-1,9.785900116E0,9.787136904E0
1.158613754E1,-6.256988525E-2,1.407073975E-1,9.791139221E0,9.792350117E0
1.159612554E1,-5.867797852E-2,1.347198486E-1,9.787846069E0,9.788949036E0
1.160611254E1,-5.927673340E-2,1.345701599E-1,9.787247314E0,9.788351897E0
1.161610054E1,-4.460723877E-2,1.395098877E-1,9.793683929E0,9.794779105E0
1.162608754E1,-6.541397095E-2,1.356179810E-1,9.788295135E0,9.789453145E0
1.163607554E1,-6.077362061E-2,1.371148682E-1,9.787846069E0,9.788995076E0
1.164606254E1,-5.194198608E-2,1.380130005E-1,9.789342957E0,9.790453569E0
1.165605054E1,-5.777984619E-2,1.380130005E-1,9.788444824E0,9.789588254E0
1.166603754E1,-5.882766724E-2,1.360670471E-1,9.790540466E0,9.791662655E0
1.167602554E1,-6.616241455E-2,1.363664246E-1,9.785301361E0,9.786475157E0
1.168601254E1,-5.733078003E-2,1.420545959E-1,9.792037354E0,9.793235515E0
1.169600054E1,-5.598358154E-2,1.330732727E-1,9.790989532E0,9.792053854E0
1.170598754E1,-5.837860107E-2,1.384620667E-1,9.782157898E0,9.783311962E0
1.171597592E1,-5.343887329E-2,1.445993042E-1,9.781708832E0,9.782923507E0
1.172596292E1,-5.523513794E-2,1.437011719E-1,9.783355408E0,9.784566622E0
1.173595092E1,-7.259902954E-2,1.365161133E-1,9.787696381E0,9.788917596E0
1.174593792E1,-6.152206421E-2,1.369651794E-1,9.785151672E0,9.786303576E0
1.175592592E1,-6.391708374E-2,1.347198486E-1,9.789193268E0,9.790328884E0
1.176591292E1,-6.466552734E-2,1.230441284E-1,9.782307587E0,9.783295110E0
1.177590092E1,-5.403762817E-2,1.318757629E-1,9.788145447E0,9.789182937E0
1.178588792E1,-5.912704468E-2,1.404080200E-1,9.781708832E0,9.782895179E0
1.179587592E1,-6.301895142E-2,1.335223389E-1,9.789642334E0,9.790755672E0
1.180586292E1,-5.763015747E-2,1.377136230E-1,9.779912567E0,9.781051891E0
1.181585092E1,-6.047424316E-2,1.386117554E-1,9.793085175E0,9.794252784E0
1.182583792E1,-5.748046875E-2,1.260379028E-1,9.792336731E0,9.793316507E0
1.183582592E1,-6.227050781E-2,1.362167358E-1,9.784852295E0,9.785998521E0
1.184581292E1,-5.912704468E-2,1.357676697E-1,9.782457275E0,9.783578037E0
1.185580092E1,-6.346801758E-2,1.392105103E-1,9.780810699E0,9.782007243E0
1.186578792E1,-5.224136353E-2,1.366658020E-1,9.790989532E0,9.792082655E0
1.187577592E1,-6.526428223E-2,1.279838562E-1,9.789941711E0,9.790995762E0
1.188576292E1,-6.017486572E-2,1.434017944E-1,9.777218170E0,9.778454900E0
1.189575092E1,-5.104385376E-2,1.442999268E-1,9.797575836E0,9.798771362E0
1.190573792E1,-5.358856201E-2,1.453477478E-1,9.785151672E0,9.786377826E0
1.191572592E1,-5.867797852E-2,1.431024170E-1,9.783804474E0,9.785026898E0
1.192571292E1,-6.107299805E-2,1.360670471E-1,9.783804474E0,9.784941192E0
1.193570092E1,-6.301895142E-2,1.281335449E-1,9.782756653E0,9.783798716E0
1.194568792E1,-5.718109131E-2,1.342707825E-1,9.779463501E0,9.780552371E0
1.195567592E1,-6.047424316E-2,1.323248291E-1,9.785001984E0,9.786083528E0
1.196566292E1,-6.466552734E-2,1.281335449E-1,9.781708832E0,9.782761752E0
1.197565092E1,-6.092330933E-2,1.351689148E-1,9.790241089E0,9.791363688E0
1.198563792E1,-5.673202515E-2,1.457968140E-1,9.790690155E0,9.791939999E0
1.199562592E1,-5.269042969E-2,1.387614441E-1,9.776619415E0,9.777746070E0
1.200561292E1,-5.897735596E-2,1.414558411E-1,9.788295135E0,9.789494867E0
1.201560092E1,-5.448669434E-2,1.356179810E-1,9.789492645E0,9.790583603E0
1.202558792E1,-5.822891235E-2,1.341210938E-1,9.800419922E0,9.801510584E0
1.203557592E1,-6.062393188E-2,1.300794983E-1,9.785451050E0,9.786503369E0
1.204556292E1,-5.763015747E-2,1.416055298E-1,9.793384552E0,9.794577803E0
1.205555092E1,-6.586303711E-2,1.407073975E-1,9.793085175E0,9.794317421E0
1.206553792E1,-5.583389282E-2,1.405577087E-1,9.787696381E0,9.788864813E0
1.207552592E1,-5.912704468E-2,1.401086426E-1,9.792935486E0,9.794116186E0
1.208551292E1,-6.242019653E-2,1.371148682E-1,9.787696381E0,9.788855766E0
1.209550092E1,-5.748046875E-2,1.374142456E-1,9.779613190E0,9.780747457E0
1.210548792E1,-5.164260864E-2,1.386117554E-1,9.790690155E0,9.791807488E0
1.211547592E1,-5.837860107E-2,1.314266968E-1,9.794881439E0,9.795937089E0
1.212546292E1,-6.002517700E-2,1.315763855E-1,9.787696381E0,9.788764774E0
1.213545092E1,-6.032455444E-2,1.392105103E-1,9.780661011E0,9.781837681E0
1.214543792E1,-5.388793945E-2,1.312770081E-1,9.782906342E0,9.783935509E0
1.215542592E1,-5.763015747E-2,1.368154907E-1,9.785151672E0,9.786277789E0
1.216541292E1,-5.807922363E-2,1.275347900E-1,9.788295135E0,9.789298237E0
1.217540092E1,-5.942642212E-2,1.396595764E-1,9.777068481E0,9.778246488E0
1.218538792E1,-5.942642212E-2,1.447489929E-1,9.779014435E0,9.780266207E0
1.219537592E1,-5.269042969E-2,1.428030396E-1,9.783205719E0,9.784389768E0
1.220536292E1,-5.867797852E-2,1.320254517E-1,9.786049805E0,9.787116256E0
1.221535092E1,-5.328918457E-2,1.411564636E-1,9.778116302E0,9.779280306E0
1.222533792E1,-5.718109131E-2,1.357676697E-1,9.786049805E0,9.787158593E0
1.223532592E1,-6.496490479E-2,1.366658020E-1,9.785001984E0,9.786171969E0
1.224531292E1,-5.927673340E-2,1.414558411E-1,9.782906342E0,9.784108543E0
1.225530092E1,-6.421646118E-2,1.462458801E-1,9.789492645E0,9.790795568E0
1.226528792E1,-6.586303711E-2,1.332229614E-1,9.785301361E0,9.786429841E0
1.227527592E1,-6.825805664E-2,1.381626892E-1,9.789792023E0,9.791004848E0
1.228526292E1,-6.586303711E-2,1.309776306E-1,9.778565369E0,9.779664296E0
1.229525092E1,-5.508544922E-2,1.302291870E-1,9.789342957E0,9.790364118E0
1.230523792E1,-5.703140259E-2,1.353186035E-1,9.797126770E0,9.798227220E0
1.231522592E1,-6.227050781E-2,1.407073975E-1,9.789492645E0,9.790701836E0
1.232521292E1,-6.286926270E-2,1.363664246E-1,9.782906342E0,9.784058710E0
1.233520092E1,-5.553451538E-2,1.282832336E-1,9.791737976E0,9.792735739E0
1.234518792E1,-5.583389282E-2,1.323248291E-1,9.795929260E0,9.796982053E0
1.235517592E1,-5.792953491E-2,1.431024170E-1,9.784702606E0,9.785920459E0
1.236516292E1,-6.511459351E-2,1.359173584E-1,9.792486420E0,9.793646089E0
1.237515092E1,-6.391708374E-2,1.402583313E-1,9.790390778E0,9.791604024E0
1.238513792E1,-6.047424316E-2,1.353186035E-1,9.775122528E0,9.776246146E0
1.239512592E1,-5.882766724E-2,1.342707825E-1,9.792935486E0,9.794032610E0
1.240511292E1,-6.271957397E-2,1.374142456E-1,9.783505096E0,9.784671093E0
1.241510092E1,-5.373825073E-2,1.387614441E-1,9.784103851E0,9.785235343E0
1.242508792E1,-5.882766724E-2,1.478924561E-1,9.796677704E0,9.797970550E0
1.243507592E1,-6.451583862E-2,1.393601990E-1,9.787097626E0,9.788302381E0
1.244506292E1,-5.822891235E-2,1.335223389E-1,9.789043579E0,9.790127324E0
1.245505092E1,-5.867797852E-2,1.377136230E-1,9.782008209E0,9.783153518E0
1.246503792E1,-6.286926270E-2,1.453477478E-1,9.777068481E0,9.778350914E0
1.247502592E1,-5.523513794E-2,1.404080200E-1,9.779313812E0,9.780477696E0
1.248501292E1,-5.777984619E-2,1.420545959E-1,9.791438599E0,9.792639473E0
1.249500092E1,-5.628295898E-2,1.362167358E-1,9.788295135E0,9.789404703E0
1.250498792E1,-6.107299805E-2,1.273851013E-1,9.783355408E0,9.784375295E0
1.251497592E1,-6.137237549E-2,1.336720276E-1,9.782906342E0,9.784012023E0
1.252496292E1,-5.164260864E-2,1.303788757E-1,9.783654785E0,9.784659757E0
1.253495092E1,-5.912704468E-2,1.344204712E-1,9.786199493E0,9.787301231E0
1.254493792E1,-5.658233643E-2,1.369651794E-1,9.791887665E0,9.793008989E0
1.255492592E1,-5.553451538E-2,1.353186035E-1,9.795629883E0,9.796721901E0
1.256491292E1,-5.089416504E-2,1.384620667E-1,9.781409454E0,9.782521805E0
1.257490092E1,-5.328918457E-2,1.344204712E-1,9.783654785E0,9.784723274E0
1.258488892E1,-6.182144165E-2,1.395098877E-1,9.781708832E0,9.782898986E0
1.259487592E1,-5.703140259E-2,1.341210938E-1,9.780062256E0,9.781148132E0
1.260486392E1,-5.358856201E-2,1.357676697E-1,9.787846069E0,9.788934328E0
1.261485092E1,-6.017486572E-2,1.357676697E-1,9.781708832E0,9.782836069E0
1.262483892E1,-6.331832886E-2,1.402583313E-1,9.792636108E0,9.793845188E0
1.263482592E1,-5.942642212E-2,1.341210938E-1,9.785301361E0,9.786400906E0
1.264481392E1,-5.957611084E-2,1.393601990E-1,9.783205719E0,9.784379629E0
1.265480092E1,-5.328918457E-2,1.338217163E-1,9.784852295E0,9.785912447E0
1.266478892E1,-5.688171387E-2,1.407073975E-1,9.790241089E0,9.791417399E0
1.267477592E1,-5.224136353E-2,1.345701599E-1,9.788145447E0,9.789209854E0
1.268476392E1,-6.376739502E-2,1.392105103E-1,9.797875214E0,9.799071617E0
1.269475092E1,-5.553451538E-2,1.459465027E-1,9.789193268E0,9.790438667E0
1.270473892E1,-6.197113037E-2,1.333726501E-1,9.790540466E0,9.791644975E0
1.271472958E1,-6.526428223E-2,1.447489929E-1,9.785600739E0,9.786888858E0
1.272471758E1,-6.047424316E-2,1.442999268E-1,9.789492645E0,9.790742865E0
1.273470458E1,-6.316864014E-2,1.402583313E-1,9.790241089E0,9.791449497E0
1.274469258E1,-5.987548828E-2,1.386117554E-1,9.789792023E0,9.790956345E0
1.275467958E1,-5.508544922E-2,1.302291870E-1,9.785151672E0,9.786173271E0
1.276466758E1,-5.523513794E-2,1.401086426E-1,9.788444824E0,9.789603334E0
1.277465458E1,-4.984634399E-2,1.471440125E-1,9.799521790E0,9.800753202E0
1.278464258E1,-5.388793945E-2,1.450483704E-1,9.785600739E0,9.786824038E0
1.279462958E1,-5.538482666E-2,1.396595764E-1,9.781110077E0,9.782263880E0
1.280461758E1,-5.433700562E-2,1.425036621E-1,9.783954163E0,9.785142761E0
1.281460458E1,-4.849914551E-2,1.474433899E-1,9.801318054E0,9.802546981E0
1.282459258E1,-5.164260864E-2,1.381626892E-1,9.793534241E0,9.794644905E0
1.283457958E1,-5.478607178E-2,1.360670471E-1,9.791588287E0,9.792686911E0
1.284456758E1,-6.316864014E-2,1.327738953E-1,9.783804474E0,9.784909257E0
1.285455458E1,-5.493576050E-2,1.395098877E-1,9.790540466E0,9.791688494E0
1.286454258E1,-5.493576050E-2,1.372645569E-1,9.788594513E0,9.789711029E0
1.287452958E1,-5.822891235E-2,1.413061523E-1,9.786049805E0,9.787243167E0
1.288451758E1,-6.137237549E-2,1.342707825E-1,9.787696381E0,9.788809716E0
1.289450558E1,-5.718109131E-2,1.309776306E-1,9.786199493E0,9.787242990E0
1.290449258E1,-6.316864014E-2,1.405577087E-1,9.783954163E0,9.785167643E0
1.291448058E1,-5.927673340E-2,1.344204712E-1,9.790989532E0,9.792091637E0
1.292446758E1,-5.463638306E-2,1.368154907E-1,9.786049805E0,9.787158648E0
1.293445558E1,-5.598358154E-2,1.341210938E-1,9.797276459E0,9.798354384E0
1.294444258E1,-6.256988525E-2,1.386117554E-1,9.793384552E0,9.794565289E0
1.295443058E1,-5.777984619E-2,1.374142456E-1,9.781858521E0,9.782994291E0
1.296441758E1,-5.149291992E-2,1.408570862E-1,9.783056030E0,9.784205514E0
1.297440558E1,-5.718109131E-2,1.324745178E-1,9.788893890E0,9.789957241E0
1.298439258E1,-5.508544922E-2,1.390608215E-1,9.791588287E0,9.792730646E0
1.299438058E1,-6.017486572E-2,1.354682922E-1,9.790091400E0,9.791213525E0
1.300436758E1,-5.822891235E-2,1.363664246E-1,9.795629883E0,9.796752074E0
1.301435558E1,-6.227050781E-2,1.420545959E-1,9.783954163E0,9.785183503E0
1.302434258E1,-5.448669434E-2,1.408570862E-1,9.794432373E0,9.795596716E0
1.303433058E1,-5.658233643E-2,1.387614441E-1,9.787696381E0,9.788843483E0
1.304431758E1,-5.538482666E-2,1.342707825E-1,9.784103851E0,9.785181873E0
1.305430558E1,-5.957611084E-2,1.381626892E-1,9.786798248E0,9.787954750E0
1.306429258E1,-5.508544922E-2,1.408570862E-1,9.785001984E0,9.786170801E0
1.307428058E1,-6.062393188E-2,1.420545959E-1,9.785301361E0,9.786520193E0
1.308426758E1,-6.032455444E-2,1.383123779E-1,9.785001984E0,9.786165397E0
1.309425558E1,-5.388793945E-2,1.381626892E-1,9.793234863E0,9.794357658E0
1.310424258E1,-5.807922363E-2,1.387614441E-1,9.788145447E0,9.789301263E0
1.311423058E1,-5.643264771E-2,1.416055298E-1,9.784253540E0,9.785440925E0
1.312421758E1,-6.242019653E-2,1.441502380E-1,9.791887665E0,9.793147585E0
1.313420558E1,-6.227050781E-2,1.498384094E-1,9.794132996E0,9.795477033E0
1.314419358E1,-6.376739502E-2,1.386117554E-1,9.794881439E0,9.796069717E0
1.315418058E1,-6.271957397E-2,1.405577087E-1,9.771829376E0,9.773041470E0
1.316416858E1,-5.837860107E-2,1.425036621E-1,9.782756653E0,9.783968678E0
1.317415558E1,-5.104385376E-2,1.426533508E-1,9.788145447E0,9.789317992E0
1.318414358E1,-5.613327026E-2,1.396595764E-1,9.784702606E0,9.785860250E0
1.319413058E1,-6.092330933E-2,1.387614441E-1,9.782307587E0,9.783481390E0
1.320411858E1,-5.553451538E-2,1.381626892E-1,9.787546692E0,9.788679342E0
1.321410558E1,-5.014572144E-2,1.375639343E-1,9.781858521E0,9.782954285E0
1.322409358E1,-5.957611084E-2,1.426533508E-1,9.792785797E0,9.794005971E0
1.323408058E1,-5.538482666E-2,1.321751404E-1,9.786049805E0,9.787099086E0
1.324406858E1,-6.346801758E-2,1.422042847E-1,9.786648560E0,9.787887427E0
1.325405558E1,-5.164260864E-2,1.329235840E-1,9.790839844E0,9.791878292E0
1.326404358E1,-6.017486572E-2,1.416055298E-1,9.789492645E0,9.790701680E0
1.327403058E1,-6.107299805E-2,1.435514832E-1,9.793534241E0,9.794776662E0
1.328401858E1,-5.912704468E-2,1.405577087E-1,9.795031128E0,9.796218009E0
1.329400558E1,-6.242019653E-2,1.356179810E-1,9.797126770E0,9.798264207E0
1.330399358E1,-5.508544922E-2,1.305285645E-1,9.793384552E0,9.794409278E0
1.331398058E1,-5.523513794E-2,1.380130005E-1,9.792336731E0,9.793465023E0
1.332396858E1,-5.224136353E-2,1.437011719E-1,9.780511322E0,9.781706441E0
1.333395558E1,-5.972579956E-2,1.440005493E-1,9.779613190E0,9.780855661E0
1.334394358E1,-5.284011841E-2,1.508862305E-1,9.794582062E0,9.795886713E0
1.335393158E1,-5.613327026E-2,1.407073975E-1,9.793534241E0,9.794705837E0
1.336391858E1,-5.688171387E-2,1.353186035E-1,9.793983307E0,9.795083240E0
1.337390658E1,-5.388793945E-2,1.384620667E-1,9.787846069E0,9.788973712E0
1.338389358E1,-5.403762817E-2,1.408570862E-1,9.790390778E0,9.791553113E0
1.339388158E1,-6.481521606E-2,1.447489929E-1,9.787995758E0,9.789280578E0
1.340386858E1,-5.867797852E-2,1.437011719E-1,9.785750427E0,9.786981381E0
1.341385658E1,-5.688171387E-2,1.401086426E-1,9.795779572E0,9.796946635E0
1.342384358E1,-6.212081909E-2,1.336720276E-1,9.790839844E0,9.791949349E0
1.343383158E1,-5.792953491E-2,1.374142456E-1,9.792486420E0,9.793621842E0
1.344381858E1,-6.107299805E-2,1.432521057E-1,9.795779572E0,9.797017326E0
1.345380658E1,-5.673202515E-2,1.462458801E-1,9.795779572E0,9.797035459E0
1.346379358E1,-5.493576050E-2,1.490899658E-1,9.792785797E0,9.794074710E0
1.347378158E1,-5.703140259E-2,1.428030396E-1,9.798174591E0,9.799381134E0
1.348376858E1,-6.092330933E-2,1.342707825E-1,9.798923035E0,9.800032292E0
1.349375658E1,-6.092330933E-2,1.414558411E-1,9.782307587E0,9.783519976E0
1.350374358E1,-5.927673340E-2,1.335223389E-1,9.794282684E0,9.795372134E0
1.351373158E1,-5.912704468E-2,1.263372803E-1,9.783804474E0,9.784798777E0
1.352371858E1,-6.227050781E-2,1.378633118E-1,9.790690155E0,9.791858742E0
1.353370658E1,-5.508544922E-2,1.444496155E-1,9.792636108E0,9.793856342E0
1.354369458E1,-5.987548828E-2,1.351689148E-1,9.792486420E0,9.793602299E0
1.355368158E1,-5.777984619E-2,1.481918335E-1,9.777966614E0,9.779260219E0
1.356366958E1,-6.406677246E-2,1.463955688E-1,9.789492645E0,9.790796825E0
1.357365658E1,-5.553451538E-2,1.419049072E-1,9.786798248E0,9.787984524E0
1.358364458E1,-5.658233643E-2,1.335223389E-1,9.797276459E0,9.798349646E0
1.359363158E1,-6.361770630E-2,1.457968140E-1,9.782307587E0,9.783600853E0
1.360361958E1,-6.017486572E-2,1.399589539E-1,9.791438599E0,9.792623722E0
1.361360658E1,-5.792953491E-2,1.417552185E-1,9.783804474E0,9.785002829E0
1.362359458E1,-6.316864014E-2,1.348695374E-1,9.782307587E0,9.783441204E0
1.363358158E1,-5.852828979E-2,1.345701599E-1,9.788444824E0,9.789544768E0
1.364356958E1,-5.987548828E-2,1.401086426E-1,9.793683929E0,9.794869086E0
1.365355658E1,-5.777984619E-2,1.383123779E-1,9.795330505E0,9.796477353E0
1.366354458E1,-5.658233643E-2,1.329235840E-1,9.797875214E0,9.798940195E0
1.367353158E1,-5.194198608E-2,1.435514832E-1,9.787097626E0,9.788288151E0
1.368351958E1,-5.822891235E-2,1.416055298E-1,9.778116302E0,9.779314964E0
1.369350658E1,-5.807922363E-2,1.496887207E-1,9.777517548E0,9.778835785E0
1.370349458E1,-5.763015747E-2,1.440005493E-1,9.786798248E0,9.788027245E0
1.371348142E1,-5.792953491E-2,1.332229614E-1,9.792636108E0,9.793713603E0
1.372346942E1,-4.834945679E-2,1.477427673E-1,9.786049805E0,9.787284423E0
1.373345642E1,-6.122268677E-2,1.435514832E-1,9.787846069E0,9.789090148E0
1.374344442E1,-5.927673340E-2,1.383123779E-1,9.790540466E0,9.791696823E0
1.375343242E1,-5.942642212E-2,1.411564636E-1,9.795480194E0,9.796677441E0
1.376341942E1,-5.927673340E-2,1.365161133E-1,9.787247314E0,9.788378843E0
1.377340742E1,-6.271957397E-2,1.417552185E-1,9.787995758E0,9.789223118E0
1.378339442E1,-5.763015747E-2,1.408570862E-1,9.786498871E0,9.787682162E0
1.379338242E1,-5.418731689E-2,1.365161133E-1,9.787247314E0,9.788349345E0
1.380336942E1,-5.059478760E-2,1.392105103E-1,9.786798248E0,9.787919051E0
1.381335742E1,-5.553451538E-2,1.335223389E-1,9.784702606E0,9.785771170E0
1.382334442E1,-5.897735596E-2,1.323248291E-1,9.791288910E0,9.792360630E0
1.383333242E1,-5.119354248E-2,1.303788757E-1,9.785301361E0,9.786303805E0
1.384331942E1,-5.553451538E-2,1.371148682E-1,9.782606964E0,9.783725445E0
1.385330742E1,-5.433700562E-2,1.306782532E-1,9.788744202E0,9.789767227E0
1.386329442E1,-5.673202515E-2,1.384620667E-1,9.783505096E0,9.784649316E0
1.387328242E1,-5.074447632E-2,1.356179810E-1,9.788893890E0,9.789964803E0
1.388326942E1,-5.628295898E-2,1.302291870E-1,9.789792023E0,9.790819948E0
1.389325742E1,-6.571334839E-2,1.419049072E-1,9.783954163E0,9.785203846E0
1.390324542E1,-5.254074097E-2,1.383123779E-1,9.782157898E0,9.783276751E0
1.391323242E1,-5.957611084E-2,1.396595764E-1,9.782756653E0,9.783934885E0
1.392322042E1,-5.418731689E-2,1.324745178E-1,9.784852295E0,9.785899049E0
1.393320742E1,-6.137237549E-2,1.405577087E-1,9.783804474E0,9.785006542E0
1.394319542E1,-6.571334839E-2,1.475930786E-1,9.797426147E0,9.798758139E0
1.395318242E1,-5.718109131E-2,1.410067749E-1,9.797875214E0,9.799056653E0
1.396317042E1,-5.493576050E-2,1.330732727E-1,9.799521790E0,9.800579255E0
1.397315742E1,-6.017486572E-2,1.389111328E-1,9.782906342E0,9.784077565E0
1.398314542E1,-5.957611084E-2,1.420545959E-1,9.794432373E0,9.795643640E0
1.399313242E1,-5.777984619E-2,1.386117554E-1,9.790540466E0,9.791692109E0
1.400312042E1,-6.271957397E-2,1.441502380E-1,9.784253540E0,9.785516357E0
1.401310742E1,-6.047424316E-2,1.356179810E-1,9.785151672E0,9.786278282E0
1.402309542E1,-6.122268677E-2,1.456471252E-1,9.781708832E0,9.782984666E0
1.403308242E1,-5.718109131E-2,1.333726501E-1,9.791887665E0,9.792962881E0
1.404307042E1,-6.047424316E-2,1.440005493E-1,9.786798248E0,9.788044404E0
1.405305742E1,-5.748046875E-2,1.390608215E-1,9.783355408E0,9.784512504E0
1.406304542E1,-6.092330933E-2,1.496887207E-1,9.788295135E0,9.789629208E0
1.407303342E1,-6.062393188E-2,1.386117554E-1,9.781110077E0,9.782280042E0
1.408302042E1,-5.194198608E-2,1.431024170E-1,9.787247314E0,9.788431246E0
1.409300842E1,-5.837860107E-2,1.419049072E-1,9.790241089E0,9.791443491E0
1.410299542E1,-6.077362061E-2,1.297801208E-1,9.779164124E0,9.780214071E0
1.411298342E1,-6.242019653E-2,1.329235840E-1,9.794582062E0,9.795682862E0
1.412297042E1,-5.403762817E-2,1.466949463E-1,9.793234863E0,9.794482557E0
1.413295842E1,-5.942642212E-2,1.336720276E-1,9.793234863E0,9.794327379E0
1.414294542E1,-6.032455444E-2,1.317260742E-1,9.790839844E0,9.791911747E0
1.415293342E1,-6.047424316E-2,1.420545959E-1,9.785301361E0,9.786519267E0
1.416292042E1,-5.807922363E-2,1.416055298E-1,9.778715057E0,9.779912755E0
1.417290842E1,-5.822891235E-2,1.326242065E-1,9.788594513E0,9.789666099E0
1.418289542E1,-5.897735596E-2,1.371148682E-1,9.774823151E0,9.775962686E0
1.419288342E1,-6.137237549E-2,1.392105103E-1,9.781858521E0,9.783041564E0
1.420287042E1,-5.313949585E-2,1.362167358E-1,9.782756653E0,9.783849270E0
1.421285842E1,-5.882766724E-2,1.408570862E-1,9.792486420E0,9.793676107E0
1.422284642E1,-5.343887329E-2,1.315763855E-1,9.799222412E0,9.800251422E0
1.423283342E1,-5.628295898E-2,1.363664246E-1,9.791288910E0,9.792400221E0
1.424282142E1,-6.481521606E-2,1.351689148E-1,9.780960388E0,9.782109065E0
1.425280842E1,-5.718109131E-2,1.365161133E-1,9.777966614E0,9.779086738E0
1.426279642E1,-5.673202515E-2,1.384620667E-1,9.784702606E0,9.785846686E0
1.427278342E1,-6.197113037E-2,1.393601990E-1,9.786199493E0,9.787387916E0
1.428277142E1,-6.271957397E-2,1.401086426E-1,9.779164124E0,9.780368865E0
1.429275842E1,-5.867797852E-2,1.432521057E-1,9.790540466E0,9.791764238E0
1.430274642E1,-5.688171387E-2,1.475930786E-1,9.794731750E0,9.796008846E0
1.431273342E1,-6.017486572E-2,1.386117554E-1,9.785451050E0,9.786617724E0
1.432272142E1,-6.346801758E-2,1.345701599E-1,9.798773346E0,9.799902877E0
1.433270842E1,-5.508544922E-2,1.399589539E-1,9.802964630E0,9.804118444E0
1.434269642E1,-6.227050781E-2,1.387614441E-1,9.797426147E0,9.798606609E0
1.435268442E1,-6.062393188E-2,1.498384094E-1,9.787397003E0,9.788731629E0
1.436267142E1,-5.568420410E-2,1.505868530E-1,9.791887665E0,9.793203826E0
1.437265942E1,-6.586303711E-2,1.386117554E-1,9.785900116E0,9.787103363E0
1.438264642E1,-6.152206421E-2,1.341210938E-1,9.787546692E0,9.788658932E0
1.439263442E1,-5.628295898E-2,1.378633118E-1,9.788444824E0,9.789577424E0
1.440262142E1,-6.212081909E-2,1.341210938E-1,9.785750427E0,9.786866653E0
1.441260942E1,-6.137237549E-2,1.378633118E-1,9.795031128E0,9.796193529E0
1.442259642E1,-5.912704468E-2,1.453477478E-1,9.798024902E0,9.799281298E0
1.443258442E1,-6.182144165E-2,1.432521057E-1,9.789492645E0,9.790735892E0
1.444257142E1,-5.733078003E-2,1.378633118E-1,9.789342957E0,9.790481532E0
1.445255942E1,-6.122268677E-2,1.442999268E-1,9.787546692E0,9.788801813E0
1.446254642E1,-5.972579956E-2,1.432521057E-1,9.801168365E0,9.802397139E0
1.447253442E1,-5.852828979E-2,1.347198486E-1,9.787397003E0,9.788499124E0
1.448252142E1,-5.194198608E-2,1.387614441E-1,9.786798248E0,9.787919731E0
1.449250942E1,-5.927673340E-2,1.384620667E-1,9.791438599E0,9.792596964E0
1.450249742E1,-5.837860107E-2,1.389111328E-1,9.787097626E0,9.788257470E0
1.451248442E1,-6.227050781E-2,1.387614441E-1,9.795330505E0,9.796511219E0
1.452247242E1,-5.807922363E-2,1.429527283E-1,9.794582062E0,9.795797387E0
1.453245942E1,-5.777984619E-2,1.353186035E-1,9.789193268E0,9.790298998E0
1.454244742E1,-5.493576050E-2,1.422042847E-1,9.787995758E0,9.789182854E0
1.455243442E1,-6.391708374E-2,1.434017944E-1,9.791288910E0,9.792547574E0
1.456242242E1,-5.792953491E-2,1.487905884E-1,9.789941711E0,9.791243700E0
1.457240942E1,-5.673202515E-2,1.414558411E-1,9.789193268E0,9.790379620E0
1.458239742E1,-5.897735596E-2,1.359173584E-1,9.787546692E0,9.788668045E0
1.459238442E1,-5.284011841E-2,1.345701599E-1,9.789342957E0,9.790410447E0
1.460237242E1,-5.538482666E-2,1.329235840E-1,9.795629883E0,9.796688265E0
1.461235942E1,-5.568420410E-2,1.549278259E-1,9.785451050E0,9.786835832E0
1.462234742E1,-5.688171387E-2,1.414558411E-1,9.776769104E0,9.777957834E0
1.463233442E1,-5.059478760E-2,1.338217163E-1,9.776170349E0,9.777217129E0
1.464232242E1,-5.882766724E-2,1.404080200E-1,9.790690155E0,9.791873611E0
1.465231042E1,-6.002517700E-2,1.396595764E-1,9.794881439E0,9.796060955E0
1.466229742E1,-5.568420410E-2,1.386117554E-1,9.790540466E0,9.791679967E0
1.467228542E1,-5.748046875E-2,1.368154907E-1,9.782756653E0,9.783882165E0
1.468227242E1,-6.256988525E-2,1.392105103E-1,9.798623657E0,9.799812250E0
1.469226042E1,-6.032455444E-2,1.395098877E-1,9.790690155E0,9.791869881E0
1.470224742E1,-6.017486572E-2,1.377136230E-1,9.780661011E0,9.781815571E0
1.471223529E1,-5.358856201E-2,1.395098877E-1,9.787546692E0,9.788687603E0
1.472222229E1,-6.137237549E-2,1.419049072E-1,9.780211945E0,9.781433906E0
1.473221029E1,-5.882766724E-2,1.419049072E-1,9.787546692E0,9.788752114E0
1.474219729E1,-5.568420410E-2,1.377136230E-1,9.782606964E0,9.783734705E0
1.475218529E1,-5.523513794E-2,1.339714050E-1,9.794731750E0,9.795803659E0
1.476217229E1,-5.598358154E-2,1.371148682E-1,9.799970856E0,9.801089910E0
1.477216029E1,-5.882766724E-2,1.462458801E-1,9.797725525E0,9.798993520E0
1.478214829E1,-5.298980713E-2,1.466949463E-1,9.789492645E0,9.790735089E0
1.479213529E1,-5.403762817E-2,1.386117554E-1,9.784852295E0,9.785983227E0
1.480212329E1,-6.616241455E-2,1.392105103E-1,9.801168365E0,9.802380239E0
1.481211029E1,-5.403762817E-2,1.404080200E-1,9.801318054E0,9.802472651E0
1.482209829E1,-6.047424316E-2,1.453477478E-1,9.780211945E0,9.781478865E0
1.483208529E1,-6.152206421E-2,1.315763855E-1,9.784253540E0,9.785331606E0
1.484207329E1,-5.598358154E-2,1.363664246E-1,9.792486420E0,9.793595879E0
1.485206029E1,-6.017486572E-2,1.417552185E-1,9.774374084E0,9.775587159E0
1.486204829E1,-6.197113037E-2,1.426533508E-1,9.778116302E0,9.779353190E0
1.487203529E1,-5.942642212E-2,1.419049072E-1,9.794282684E0,9.795490891E0
1.488202329E1,-6.421646118E-2,1.399589539E-1,9.800569611E0,9.801779275E0
1.489201029E1,-6.331832886E-2,1.431024170E-1,9.790989532E0,9.792239965E0
1.490199829E1,-5.867797852E-2,1.401086426E-1,9.794282684E0,9.795460522E0
1.491198629E1,-6.047424316E-2,1.360670471E-1,9.789642334E0,9.790774658E0
1.492197329E1,-6.646179199E-2,1.386117554E-1,9.795929260E0,9.797135319E0
1.493196129E1,-6.182144165E-2,1.410067749E-1,9.792486420E0,9.793696701E0
1.494194829E1,-6.137237549E-2,1.419049072E-1,9.794432373E0,9.795652560E0
1.495193629E1,-6.032455444E-2,1.377136230E-1,9.788893890E0,9.790048401E0
1.496192329E1,-5.059478760E-2,1.399589539E-1,9.785451050E0,9.786582682E0
1.497191129E1,-5.613327026E-2,1.462458801E-1,9.793534241E0,9.794786967E0
1.498189829E1,-5.568420410E-2,1.377136230E-1,9.787995758E0,9.789122879E0
1.499188629E1,-5.343887329E-2,1.312770081E-1,9.790540466E0,9.791566371E0
1.500187329E1,-6.526428223E-2,1.448986816E-1,9.790690155E0,9.791979819E0
1.501186129E1,-5.613327026E-2,1.317260742E-1,9.796977081E0,9.798023404E0
1.502184929E1,-6.795867920E-2,1.374142456E-1,9.792785797E0,9.793985640E0
1.503183629E1,-5.523513794E-2,1.477427673E-1,9.791887665E0,9.793157963E0
1.504182429E1,-6.765930176E-2,1.384620667E-1,9.792187042E0,9.793399644E0
1.505181129E1,-6.825805664E-2,1.339714050E-1,9.773475952E0,9.774632458E0
1.506179929E1,-6.526428223E-2,1.454974365E-1,9.782756653E0,9.784056248E0
1.507178629E1,-5.658233643E-2,1.398092651E-1,9.794881439E0,9.796042599E0
1.508177429E1,-6.092330933E-2,1.407073975E-1,9.783505096E0,9.784706546E0
1.509176129E1,-6.182144165E-2,1.390608215E-1,9.793983307E0,9.795165584E0
1.510174929E1,-5.583389282E-2,1.389111328E-1,9.794731750E0,9.795875856E0
1.511173629E1,-6.167175293E-2,1.405577087E-1,9.783056030E0,9.784260072E0
1.512172429E1,-5.733078003E-2,1.460961914E-1,9.789941711E0,9.791199601E0
1.513171129E1,-5.718109131E-2,1.369651794E-1,9.783205719E0,9.784331519E0
1.514169929E1,-6.152206421E-2,1.393601990E-1,9.776769104E0,9.777955837E0
1.515168629E1,-5.014572144E-2,1.402583313E-1,9.774224396E0,9.775359304E0
1.516167429E1,-6.167175293E-2,1.460961914E-1,9.785600739E0,9.786885578E0
1.517166229E1,-6.017486572E-2,1.428030396E-1,9.782457275E0,9.783684585E0
1.518164929E1,-4.939727783E-2,1.387614441E-1,9.790690155E0,9.791798024E0
1.519163729E1,-5.523513794E-2,1.333726501E-1,9.793384552E0,9.794448436E0
1.520162429E1,-4.805007935E-2,1.407073975E-1,9.792486420E0,9.793615148E0
1.521161229E1,-6.107299805E-2,1.362167358E-1,9.790690155E0,9.791828155E0
1.522159929E1,-6.631210327E-2,1.314266968E-1,9.792187042E0,9.793293488E0
1.523158729E1,-6.152206421E-2,1.375639343E-1,9.792785797E0,9.793945194E0
1.524157429E1,-6.152206421E-2,1.396595764E-1,9.788594513E0,9.789784078E0
1.525156229E1,-6.586303711E-2,1.425036621E-1,9.789642334E0,9.790900993E0
1.526155029E1,-5.493576050E-2,1.475930786E-1,9.790540466E0,9.791806998E0
1.527153729E1,-5.643264771E-2,1.354682922E-1,9.794432373E0,9.795531727E0
1.528152529E1,-6.062393188E-2,1.408570862E-1,9.787846069E0,9.789047280E0
1.529151229E1,-5.059478760E-2,1.416055298E-1,9.783205719E0,9.784361303E0
1.530150029E1,-6.346801758E-2,1.363664246E-1,9.792486420E0,9.793641522E0
1.531148729E1,-5.897735596E-2,1.423539734E-1,9.795330505E0,9.796542385E0
1.532147529E1,-6.631210327E-2,1.437011719E-1,9.794582062E0,9.795860610E0
1.533146229E1,-6.436614990E-2,1.357676697E-1,9.786798248E0,9.787951564E0
1.534145029E1,-5.643264771E-2,1.384620667E-1,9.792187042E0,9.793328518E0
1.535143729E1,-6.152206421E-2,1.356179810E-1,9.799970856E0,9.801102284E0
1.536142529E1,-5.733078003E-2,1.410067749E-1,9.784253540E0,9.785437500E0
1.537141229E1,-6.137237549E-2,1.327738953E-1,9.790989532E0,9.792082082E0
1.538140029E1,-6.122268677E-2,1.380130005E-1,9.785301361E0,9.786466090E0
1.539138829E1,-6.107299805E-2,1.381626892E-1,9.793085175E0,9.794250154E0
1.540137529E1,-6.152206421E-2,1.408570862E-1,9.786199493E0,9.787406511E0
1.541136329E1,-5.673202515E-2,1.413061523E-1,9.789492645E0,9.790676800E0
1.542135029E1,-6.167175293E-2,1.466949463E-1,9.790839844E0,9.792132947E0
1.543133829E1,-5.792953491E-2,1.366658020E-1,9.783804474E0,9.784930422E0
1.544132529E1,-5.987548828E-2,1.392105103E-1,9.788444824E0,9.789617802E0
1.545131329E1,-5.358856201E-2,1.405577087E-1,9.783954163E0,9.785110488E0
1.546130029E1,-5.298980713E-2,1.434017944E-1,9.791438599E0,9.792632017E0
1.547128829E1,-6.107299805E-2,1.437011719E-1,9.785301361E0,9.786547025E0
1.548127529E1,-6.077362061E-2,1.405577087E-1,9.779912567E0,9.781111375E0
1.549126329E1,-5.298980713E-2,1.426533508E-1,9.786947937E0,9.788130967E0
1.550125029E1,-5.957611084E-2,1.384620667E-1,9.782756653E0,9.783917865E0
1.551123829E1,-5.957611084E-2,1.392105103E-1,9.794731750E0,9.795902151E0
1.552122629E1,-6.107299805E-2,1.420545959E-1,9.799521790E0,9.800741641E0
1.553121329E1,-5.538482666E-2,1.297801208E-1,9.788295135E0,9.789312132E0
1.554120129E1,-5.748046875E-2,1.360670471E-1,9.793683929E0,9.794797760E0
1.555118829E1,-5.448669434E-2,1.398092651E-1,9.805958405E0,9.807106386E0
1.556117629E1,-4.879852295E-2,1.431024170E-1,9.794582062E0,9.795748943E0
1.557116329E1,-5.927673340E-2,1.429527283E-1,9.797575836E0,9.798797961E0
1.558115129E1,-5.837860107E-2,1.437011719E-1,9.789642334E0,9.790871009E0
1.559113829E1,-6.062393188E-2,1.356179810E-1,9.787995758E0,9.789122967E0
1.560112629E1,-6.256988525E-2,1.396595764E-1,9.796977081E0,9.798172264E0
1.561111329E1,-5.912704468E-2,1.392105103E-1,9.784253540E0,9.785422470E0
1.562110129E1,-5.837860107E-2,1.428030396E-1,9.786648560E0,9.787864466E0
1.563108929E1,-6.646179199E-2,1.447489929E-1,9.782756653E0,9.784053208E0
1.564107629E1,-5.613327026E-2,1.428030396E-1,9.784702606E0,9.785905617E0
1.565106429E1,-4.775070190E-2,1.460961914E-1,9.793534241E0,9.794740280E0
1.566105129E1,-6.286926270E-2,1.417552185E-1,9.797426147E0,9.798653285E0
1.567103229E1,-5.987548828E-2,1.309776306E-1,9.786199493E0,9.787259102E0
1.568099029E1,-5.583389282E-2,1.353186035E-1,9.786798248E0,9.787892955E0
1.569094829E1,-5.763015747E-2,1.399589539E-1,9.784103851E0,9.785274545E0
1.570090629E1,-5.792953491E-2,1.444496155E-1,9.786498871E0,9.787736289E0
1.571086367E1,-5.822891235E-2,1.324745178E-1,9.798473969E0,9.799542449E0
1.572082167E1,-6.691085815E-2,1.347198486E-1,9.789642334E0,9.790797900E0
1.573077867E1,-5.463638306E-2,1.387614441E-1,9.792336731E0,9.793472240E0
1.574073667E1,-5.373825073E-2,1.372645569E-1,9.787097626E0,9.788207665E0
1.575069467E1,-5.553451538E-2,1.338217163E-1,9.787696381E0,9.788768706E0
1.576065267E1,-6.331832886E-2,1.246907043E-1,9.796677704E0,9.797675797E0
1.577060967E1,-5.583389282E-2,1.431024170E-1,9.787546692E0,9.788752013E0
1.578056667E1,-5.777984619E-2,1.453477478E-1,9.777816925E0,9.779067864E0
1.579052367E1,-5.897735596E-2,1.396595764E-1,9.784403229E0,9.785577636E0
1.580048067E1,-5.658233643E-2,1.378633118E-1,9.802066498E0,9.803199247E0
1.581043767E1,-5.583389282E-2,1.356179810E-1,9.791737976E0,9.792836272E0
1.582039467E1,-5.957611084E-2,1.380130005E-1,9.791438599E0,9.792592442E0
1.583035167E1,-5.912704468E-2,1.368154907E-1,9.792636108E0,9.793770287E0
1.584030767E1,-5.658233643E-2,1.312770081E-1,9.789941711E0,9.790985340E0
1.585026467E1,-5.044509888E-2,1.384620667E-1,9.790390778E0,9.791499784E0
1.586022167E1,-5.418731689E-2,1.347198486E-1,9.786648560E0,9.787725769E0
1.587017867E1,-6.152206421E-2,1.425036621E-1,9.788744202E0,9.789974735E0
1.588013667E1,-5.433700562E-2,1.402583313E-1,9.782457275E0,9.783613609E0
1.589009367E1,-6.062393188E-2,1.401086426E-1,9.791288910E0,9.792478961E0
1.590005067E1,-5.658233643E-2,1.350192261E-1,9.790690155E0,9.791784590E0
1.591000867E1,-5.328918457E-2,1.375639343E-1,9.792486420E0,9.793597595E0
1.591996567E1,-5.852828979E-2,1.356179810E-1,9.790091400E0,9.791205616E0
1.592992267E1,-5.298980713E-2,1.441502380E-1,9.804311829E0,9.805514655E0
1.593987967E1,-6.137237549E-2,1.386117554E-1,9.796528015E0,9.797700799E0
1.594983667E1,-5.792953491E-2,1.366658020E-1,9.798623657E0,9.799747902E0
1.595979467E1,-5.822891235E-2,1.417552185E-1,9.792037354E0,9.793236476E0
1.596975167E1,-5.703140259E-2,1.368154907E-1,9.797725525E0,9.798846693E0
1.597970967E1,-5.792953491E-2,1.404080200E-1,9.786947937E0,9.788126489E0
1.598966667E1,-6.122268677E-2,1.431024170E-1,9.785451050E0,9.786688856E0
1.599962467E1,-5.927673340E-2,1.396595764E-1,9.788594513E0,9.789770225E0
1.600958267E1,-5.673202515E-2,1.312770081E-1,9.789642334E0,9.790686861E0
1.601953967E1,-6.256988525E-2,1.296304321E-1,9.777966614E0,9.779026032E0
1.602949767E1,-5.733078003E-2,1.362167358E-1,9.788444824E0,9.789560455E0
1.603945467E1,-6.122268677E-2,1.338217163E-1,9.788893890E0,9.790000003E0
1.604941167E1,-5.583389282E-2,1.309776306E-1,9.790091400E0,9.791126707E0
1.605936967E1,-6.361770630E-2,1.338217163E-1,9.788893890E0,9.790015274E0
1.606932567E1,-6.391708374E-2,1.336720276E-1,9.782606964E0,9.783728973E0
1.607928367E1,-5.748046875E-2,1.336720276E-1,9.786498871E0,9.787580516E0
1.608924067E1,-5.313949585E-2,1.357676697E-1,9.787097626E0,9.788183519E0
1.609919767E1,-5.194198608E-2,1.374142456E-1,9.792486420E0,9.793588256E0
1.610915467E1,-5.777984619E-2,1.366658020E-1,9.802066498E0,9.803189465E0
1.611911267E1,-6.122268677E-2,1.324745178E-1,9.801617432E0,9.802703810E0
1.612906967E1,-7.065307617E-2,1.372645569E-1,9.793833618E0,9.795050299E0
1.613902667E1,-6.197113037E-2,1.353186035E-1,9.791737976E0,9.792869045E0
1.614898467E1,-6.017486572E-2,1.329235840E-1,9.786199493E0,9.787287174E0
1.615894167E1,-5.583389282E-2,1.405577087E-1,9.783804474E0,9.784973371E0
1.616889867E1,-5.388793945E-2,1.456471252E-1,9.798473969E0,9.799704542E0
1.617885567E1,-4.909790039E-2,1.356179810E-1,9.791737976E0,9.792800183E0
1.618881267E1,-5.912704468E-2,1.401086426E-1,9.797875214E0,9.799055319E0
1.619877067E1,-6.286926270E-2,1.378633118E-1,9.788145447E0,9.789318164E0
1.620872767E1,-6.032455444E-2,1.368154907E-1,9.786498871E0,9.787641068E0
1.621868467E1,-6.152206421E-2,1.462458801E-1,9.792336731E0,9.793621979E0
1.622864167E1,-5.134323120E-2,1.380130005E-1,9.780960388E0,9.782068791E0
1.623859867E1,-5.897735596E-2,1.339714050E-1,9.784552917E0,9.785647779E0
1.624855667E1,-5.777984619E-2,1.309776306E-1,9.774972839E0,9.776021055E0
1.625851367E1,-5.718109131E-2,1.360670471E-1,9.788444824E0,9.789557497E0
1.626847167E1,-5.224136353E-2,1.341210938E-1,9.777517548E0,9.778576943E0
1.627842867E1,-5.942642212E-2,1.335223389E-1,9.789342957E0,9.790433863E0
1.628838567E1,-5.613327026E-2,1.348695374E-1,9.781708832E0,9.782799620E0
1.629834167E1,-5.658233643E-2,1.404080200E-1,9.784403229E0,9.785574205E0
1.630829967E1,-6.900650024E-2,1.380130005E-1,9.793234863E0,9.794450397E0
1.631825567E1,-6.421646118E-2,1.402583313E-1,9.787397003E0,9.788612580E0
1.632821267E1,-6.197113037E-2,1.303788757E-1,9.778864746E0,9.779930204E0
1.633816967E1,-5.598358154E-2,1.401086426E-1,9.775122528E0,9.776286873E0
1.634812667E1,-6.092330933E-2,1.353186035E-1,9.786049805E0,9.787174953E0
1.635808267E1,-6.032455444E-2,1.327738953E-1,9.786498871E0,9.787585407E0
1.636803967E1,-5.658233643E-2,1.419049072E-1,9.796228638E0,9.797419767E0
