"Time (s)","Linear Acceleration x (m/s^2)","Linear Acceleration y (m/s^2)","Linear Acceleration z (m/s^2)","Absolute acceleration (m/s^2)"
9.481000016E-3,2.266073123E-2,4.510184127E-3,-2.465343994E-1,2.476147423E-1
1.946900017E-2,-2.081377625E-1,7.072517965E-2,-1.941439319E-1,2.932835581E-1
2.945700008E-2,6.402333404E-2,-2.445238663E-2,-1.327715564E-1,1.494161728E-1
3.944500000E-2,-1.744728409E-2,1.289396133E-2,-4.819625974E-2,5.285396308E-2
4.943300015E-2,-4.632723837E-3,9.509571211E-3,9.610425174E-2,9.668464861E-2
5.942100007E-2,-1.124284627E-1,5.947897854E-2,-6.346450925E-2,1.421465865E-1
6.940800021E-2,-6.387086333E-2,7.093961258E-2,-1.050773889E-1,1.419618733E-1
7.939600013E-2,7.041382455E-2,-1.628068120E-2,4.045103788E-3,7.238459873E-2
8.938400005E-2,-1.031828453E-1,3.244101482E-2,1.182575977E-1,1.602622177E-1
9.937200020E-2,-9.505482728E-4,7.865922317E-3,2.399112582E-3,8.278406676E-3
1.093600001E-1,-1.100848439E-2,7.742610021E-3,-1.625584424E-1,1.631146282E-1
1.193480000E-1,-2.155186160E-2,-3.018568436E-2,1.587051272E-2,4.034267533E-2
1.293360002E-1,5.145003425E-2,-2.338033161E-2,5.059829593E-2,7.585468661E-2
1.393230001E-1,2.959176713E-2,6.741835536E-2,-1.128617871E-1,1.347541847E-1
1.493110000E-1,3.419976593E-2,5.898248141E-2,1.297842139E-1,1.466032035E-1
1.592990002E-1,3.424848054E-2,6.445276178E-2,7.649502933E-2,1.057289290E-1
1.692870001E-1,8.308417442E-2,9.745714213E-2,-8.876131833E-2,1.558186325E-1
1.792750000E-1,7.340761724E-2,7.509356594E-2,3.787533939E-2,1.116345074E-1
1.892630002E-1,9.726972973E-2,3.116069386E-2,9.086514652E-2,1.367072201E-1
1.992500001E-1,2.488158596E-2,6.968691515E-2,8.338071048E-2,1.114796051E-1
2.092380002E-1,5.604711063E-2,4.237479011E-2,7.469876468E-2,1.025514841E-1
2.192260001E-1,3.903810847E-2,1.180388616E-2,6.590396762E-3,4.131269745E-2
2.292140000E-1,8.282831648E-3,1.927266262E-2,2.125989139E-2,2.986676759E-2
2.392020002E-1,2.799051169E-2,5.642340180E-2,-1.107287228E-2,6.395058651E-2
2.491900001E-1,7.467348347E-3,5.953763342E-2,8.087283969E-3,6.054663696E-2
2.591780000E-1,-2.686544802E-2,3.664415788E-2,1.508903235E-1,1.575831093E-1
2.691650002E-1,-2.856294497E-2,3.093147387E-2,-1.346789181E-2,4.420386873E-2
2.791530001E-1,-2.736232887E-2,3.952297969E-2,-2.606039697E-1,2.650003622E-1
2.891410000E-1,-4.595883637E-2,-9.591174130E-3,-4.759692013E-2,6.685560611E-2
2.991290002E-1,-3.527240566E-2,-4.414458240E-2,-5.014162838E-2,7.554514977E-2
3.091170001E-1,-1.836934660E-2,5.803047476E-4,-1.583665735E-1,1.594294240E-1
3.191050000E-1,-1.033140194E-3,3.844906088E-2,-1.302256787E-1,1.357870577E-1
3.290920001E-1,2.511416239E-3,4.924232662E-3,-1.562715161E-1,1.563692490E-1
3.390800001E-1,-1.290138569E-2,2.457682383E-3,-1.098680127E-1,1.106501973E-1
3.490680002E-1,3.073881269E-3,4.842783232E-2,-4.610061765E-2,6.693258277E-2
3.590560001E-1,1.967446455E-2,4.902845557E-2,-2.020446897E-2,5.656053904E-2
3.690440001E-1,-2.697032788E-2,1.413421401E-2,-7.648742795E-2,8.232558063E-2
3.790320002E-1,-2.305685040E-2,-1.331076616E-2,-4.460373044E-2,5.194504418E-2
3.890200001E-1,-8.031153554E-3,6.621716482E-3,-6.196762204E-2,6.283576003E-2
3.990070000E-1,2.484502944E-2,-1.448201599E-2,6.841183841E-2,7.421040298E-2
4.089950002E-1,1.898980242E-2,1.533496259E-3,6.347211063E-2,6.626969922E-2
4.189830001E-1,-2.571426716E-3,3.852186785E-2,-7.993026853E-2,8.876595273E-2
4.289710000E-1,1.008171327E-3,4.409010279E-2,6.960876346E-2,8.240348005E-2
4.389590002E-1,1.362864570E-2,1.978412497E-2,1.558294666E-1,1.576704609E-1
4.489470001E-1,-5.903233577E-3,4.826412855E-2,5.778393924E-2,7.551991728E-2
4.589350000E-1,9.799274480E-3,3.421698095E-2,2.290646732E-2,4.232651428E-2
4.689220001E-1,-1.377601495E-2,3.533520384E-2,2.829526126E-2,4.731782992E-2
4.789100001E-1,-2.880824480E-2,1.579586822E-2,2.140958011E-2,3.921472354E-2
4.888980002E-1,1.214170219E-2,4.835596181E-2,2.889401615E-2,5.762450993E-2
4.988860001E-1,4.495101850E-2,5.008816291E-2,-3.158022702E-2,7.434197244E-2
5.088740001E-1,-1.842003122E-2,5.879335139E-2,1.429568213E-1,1.556682642E-1
5.188620002E-1,5.359710443E-2,4.362035211E-2,-3.861559689E-2,7.916153766E-2
5.288500001E-1,1.000679468E-2,9.751104615E-2,-1.493852502E-1,1.786742652E-1
5.388370000E-1,1.419868870E-2,6.025140943E-2,9.385892093E-2,1.124336788E-1
5.488250002E-1,2.425548621E-2,4.507101433E-2,1.242457312E-1,1.343753202E-1
5.588130001E-1,-3.302027175E-3,7.170297572E-2,-3.262804806E-2,7.884674775E-2
5.688010000E-1,-3.369315494E-2,6.497977864E-2,-1.435473901E-1,1.611317893E-1
5.787890002E-1,3.336105593E-2,2.106446191E-2,-1.978843957E-1,2.017793490E-1
5.887770001E-1,-2.626683246E-2,4.023376814E-2,-6.885213375E-2,8.396022218E-2
5.987650000E-1,1.152731057E-2,7.419405404E-2,6.511927128E-2,9.938891304E-2
6.087520001E-1,2.240085675E-2,5.455634929E-2,-4.370442867E-2,7.340484124E-2
6.187400001E-1,2.486234725E-2,2.321432551E-2,-2.302165747E-1,2.327159480E-1
6.287280002E-1,-2.932939960E-3,4.375303365E-2,-2.133017492E-1,2.177626376E-1
6.387160001E-1,3.566455283E-2,4.518734195E-2,-4.744664669E-2,7.459919894E-2
6.487040001E-1,3.419713925E-2,3.573396111E-2,-1.212010860E-2,5.092403501E-2
6.586920002E-1,2.705541400E-2,-1.079497993E-2,1.070321131E-1,1.109252011E-1
6.686800001E-1,5.703160359E-2,6.366908071E-3,-1.098668432E-1,1.239510571E-1
6.786670000E-1,2.198490730E-2,4.938653814E-2,-3.411359167E-1,3.453926461E-1
6.886550002E-1,1.088922745E-2,-2.591549360E-3,-7.588750362E-2,7.670856933E-2
6.986430001E-1,3.644658595E-2,5.203252771E-3,1.104749537E-1,1.164480264E-1
7.086310000E-1,-2.437700208E-3,5.200903263E-2,4.281565189E-2,6.740965736E-2
7.186190002E-1,1.923919873E-2,5.991250847E-2,-8.441976070E-2,1.052917444E-1
7.286070001E-1,4.400165681E-3,3.542245983E-2,-1.085196447E-1,1.142393339E-1
7.385950000E-1,-1.892337714E-2,2.217550598E-2,-1.152135372E-2,3.134627345E-2
7.485830002E-1,-2.775357612E-2,5.230769745E-2,3.817530155E-2,7.045360068E-2
7.585700001E-1,2.143859007E-2,-2.202228723E-3,1.558312207E-1,1.573144377E-1
7.685580002E-1,-4.471318301E-2,3.428943161E-3,1.187084180E-1,1.268964731E-1
7.785460001E-1,-1.500667569E-2,4.531970372E-2,-1.344152087E-1,1.426412429E-1
7.885340001E-1,-6.018019217E-2,7.244578681E-2,-8.816197872E-2,1.290061318E-1
7.985220002E-1,-1.800686034E-3,2.478161228E-2,2.372618848E-1,2.385593695E-1
8.085100001E-1,-1.690360609E-2,4.446775527E-2,2.082222730E-1,2.135875187E-1
8.184980000E-1,2.175764933E-3,5.220676445E-2,-8.227032423E-3,5.289578689E-2
8.284850002E-1,-1.079217395E-2,2.342890690E-2,2.275853276E-2,3.439964405E-2
8.384730001E-1,-1.624558534E-2,1.399362959E-2,3.338643193E-2,3.967864097E-2
8.484610000E-1,2.764611069E-2,4.417999917E-2,-6.915092647E-2,8.659116811E-2
8.584490002E-1,8.503701654E-2,1.749538201E-2,-2.199839473E-2,8.956177725E-2
8.684370001E-1,-1.054089900E-2,1.800091948E-2,1.267927784E-1,1.284972852E-1
8.784250000E-1,3.054495008E-2,2.337132782E-2,-1.574666870E-1,1.620955596E-1
8.884130002E-1,4.630173446E-2,4.714238591E-2,-2.683860290E-1,2.764006435E-1
8.984010001E-1,3.442665845E-2,2.909955720E-2,-1.128588635E-1,1.215281947E-1
9.083880002E-1,5.309598891E-2,6.515506149E-3,-8.501734614E-2,1.004469263E-1
9.183760001E-1,7.335712333E-3,4.119305412E-2,1.781938970E-2,4.547758824E-2
9.283640001E-1,-9.458489158E-3,4.713312173E-2,-1.784225231E-1,1.847852563E-1
9.383520002E-1,-2.360662800E-2,1.045037451E-2,-2.324607360E-1,2.338898822E-1
9.483400001E-1,-2.755256895E-2,-1.341783416E-2,-5.672559321E-2,6.447460938E-2
9.583280000E-1,-1.416174047E-2,5.802894671E-2,-1.645014721E-1,1.750104222E-1
9.683160002E-1,-8.736629830E-3,6.549604210E-2,-1.856075817E-1,1.970183611E-1
9.783030001E-1,-3.169441218E-2,-5.090543692E-3,1.459529346E-1,1.494413213E-1
9.882910000E-1,-6.418658100E-2,2.497314513E-2,1.398156971E-1,1.558589244E-1
9.982798751E-1,-8.644058242E-3,7.101718412E-2,-2.457824475E-1,2.559827566E-1
1.008267875E0,-1.785495950E-2,9.469931200E-4,-6.361127436E-2,6.607639973E-2
1.018255875E0,-3.258154899E-2,-6.420260145E-2,2.793255848E-1,2.884550462E-1
1.028243875E0,1.001606457E-2,3.810728656E-3,6.646822393E-2,6.732657718E-2
1.038231875E0,-1.081827743E-2,6.211616873E-2,-4.969022334E-2,8.027809066E-2
1.048219875E0,6.969657790E-3,-2.007853456E-2,7.530044317E-2,7.824244642E-2
1.058206875E0,-1.796886486E-3,-4.386244968E-2,4.730865240E-2,6.453876265E-2
1.068194875E0,1.930504386E-2,1.869210491E-2,-2.274566889E-2,3.520575177E-2
1.078182875E0,2.547240599E-2,3.743918963E-2,1.311343360E-1,1.387326582E-1
1.088170875E0,-1.219129389E-2,2.088707658E-2,8.113771856E-2,8.466538246E-2
1.098158875E0,-2.172559471E-2,9.279826456E-3,-1.496185541E-2,2.796379377E-2
1.108146875E0,1.502903444E-2,5.863993278E-3,-8.411862910E-2,8.565163194E-2
1.118134875E0,1.574379717E-2,-9.362207101E-3,3.898923397E-3,1.872751117E-2
1.128121875E0,3.723540732E-2,-4.717503896E-3,2.261001348E-2,4.381715544E-2
1.138109875E0,-1.188571063E-2,3.933195847E-2,-4.879150629E-2,6.378780573E-2
1.148097875E0,-1.808582973E-2,3.362078422E-2,-1.664474255E-1,1.707694347E-1
1.158085875E0,2.911212871E-2,1.833490513E-2,-5.522870600E-2,6.506838519E-2
1.168073875E0,3.152454828E-2,5.717283212E-2,-7.648450434E-2,1.005604757E-1
1.178061875E0,3.363584766E-2,5.026664460E-2,-2.897909313E-1,2.960352845E-1
1.188049875E0,2.047957361E-2,6.354317714E-3,-1.249836498E-1,1.268097118E-1
1.198037875E0,-4.521396505E-2,3.557013400E-2,8.008989751E-2,9.860998303E-2
1.208024875E0,1.801953350E-2,8.395371021E-2,-2.667394531E-1,2.802193157E-1
1.218012875E0,5.212845288E-2,6.065557080E-2,-2.168931091E-1,2.311689742E-1
1.228000875E0,-9.298125843E-3,3.858698208E-2,4.596086919E-2,6.072735650E-2
1.237988875E0,3.843068326E-2,7.745950928E-2,-1.957869995E-1,2.140314046E-1
1.247976875E0,1.040173983E-2,1.072939770E-1,-6.151621699E-2,1.241146190E-1
1.257964875E0,2.208000907E-2,9.436817687E-2,8.487935185E-2,1.288308347E-1
1.267952875E0,1.970656028E-2,5.160047671E-2,3.233861089E-2,6.400580809E-2
1.277940875E0,2.321349639E-2,6.555536393E-2,2.844728887E-2,7.513734357E-2
1.287927875E0,-4.227266483E-2,7.688721305E-2,-1.088172680E-1,1.397849046E-1
1.297915875E0,-2.008800888E-2,3.204833089E-2,-5.298337519E-2,6.509886067E-2
1.307903875E0,-3.882842184E-2,4.820538688E-2,1.709515357E-1,1.818126322E-1
1.317891875E0,2.491539703E-2,7.500214838E-2,2.635223150E-2,8.330989963E-2
1.327879875E0,2.358301529E-2,6.233494596E-2,2.485534430E-2,7.113081075E-2
1.337867875E0,6.419752168E-2,-1.398929214E-2,7.485137701E-2,9.959794539E-2
1.347855875E0,-2.482012853E-3,5.810004977E-2,-1.642015100E-1,1.741950402E-1
1.357843875E0,5.936005622E-2,6.982565404E-2,-1.300724816E-1,1.591165884E-1
1.367830875E0,-7.572311007E-3,2.080741740E-2,2.366648841E-1,2.376984558E-1
1.377818875E0,6.276917938E-2,-6.206739473E-3,-4.782437682E-3,6.325634517E-2
1.387806875E0,1.027219842E-1,6.102289015E-2,-3.902314782E-1,4.081129816E-1
1.397794875E0,4.431802543E-2,3.527652840E-2,-8.426773310E-2,1.015360610E-1
1.407782875E0,-1.111380622E-2,-3.693340320E-2,1.220039088E-1,1.279552528E-1
1.417770875E0,3.368613371E-2,-1.366438110E-2,-1.511154413E-2,3.936787626E-2
1.427758875E0,-7.474302536E-2,9.005871498E-2,5.778744757E-2,1.305238717E-1
1.437746875E0,2.538535785E-2,-2.369170270E-2,-2.469045281E-2,4.260670875E-2
1.447734875E0,-7.368016601E-2,3.367607924E-4,-9.699010491E-2,1.218029586E-1
1.457721875E0,-2.127274156E-2,5.295219080E-3,4.790857673E-2,5.268586720E-2
1.467709875E0,-4.265390786E-2,5.438655163E-2,2.362175721E-1,2.461219093E-1
1.477697875E0,2.055138701E-2,-3.304670642E-2,7.904441535E-2,8.810484613E-2
1.487685875E0,-5.757486017E-3,-3.753187029E-2,-1.014795971E-1,1.083508124E-1
1.497673875E0,4.854264788E-2,-8.781327910E-3,-5.537547112E-2,7.416160182E-2
1.507661875E0,8.660120383E-4,2.252468297E-2,-1.765391350E-2,2.863166047E-2
1.517649875E0,2.347053177E-2,9.946530667E-3,-3.965815544E-2,4.714412611E-2
1.527637875E0,1.280065484E-2,1.614795625E-2,7.694994271E-2,7.966120096E-2
1.537624875E0,3.147077902E-2,-2.698261617E-2,-9.594052970E-2,1.045134285E-1
1.547612875E0,1.787873666E-2,-4.060469632E-2,-2.571552819E-1,2.609544589E-1
1.557600875E0,-1.428197270E-3,-2.756234476E-2,-2.037164086E-1,2.055774738E-1
1.567588875E0,7.162647884E-3,-2.277265516E-2,-2.032673424E-1,2.046643835E-1
1.577576875E0,-6.167177120E-3,-3.532328100E-3,-4.205259025E-2,4.264893624E-2
1.587564875E0,5.165392620E-3,4.989871312E-2,1.031460536E-1,1.146981744E-1
1.597552875E0,-2.485720810E-2,1.058199670E-1,-2.345517004E-1,2.585154664E-1
1.607540875E0,2.394474552E-2,4.008997232E-2,-2.448808068E-1,2.492933338E-1
1.617528875E0,9.783932391E-3,4.939906854E-2,1.248503333E-1,1.346239170E-1
1.627515875E0,2.055390634E-2,7.347793914E-2,5.225071907E-2,9.247490606E-2
1.637503875E0,5.876805761E-3,6.631589483E-2,3.398927987E-2,7.475029029E-2
1.647491875E0,-2.417066732E-2,2.996059396E-2,-3.935819328E-2,5.505384389E-2
1.657479875E0,9.729193544E-3,8.031938702E-4,-3.471842766E-2,3.606482423E-2
1.667467875E0,3.361511745E-2,1.224419177E-2,8.144060433E-2,8.895205668E-2
1.677455875E0,1.473372721E-2,7.853428233E-2,2.036760628E-2,8.245941793E-2
1.687443875E0,-1.684071198E-2,7.312228682E-2,7.006426156E-2,1.026619655E-1
1.697431875E0,-1.379925992E-2,3.551752734E-2,3.653398812E-2,5.278869775E-2
1.707419875E0,-2.229535334E-2,6.205510187E-2,-7.624184489E-3,6.637805841E-2
1.717406875E0,-8.076329576E-4,6.445385814E-2,1.842223763E-2,6.703977132E-2
1.727394875E0,-3.264728335E-3,2.544303515E-2,6.258041024E-2,6.763367678E-2
1.737382875E0,-1.986382754E-2,4.914207885E-4,8.443496346E-2,8.674143297E-2
1.747370875E0,-1.116135596E-2,-1.085699468E-2,-5.378268957E-3,1.647349317E-2
1.757358875E0,-3.015654649E-2,2.379973686E-2,-4.324951530E-2,5.784777735E-2
1.767346875E0,5.623859438E-3,-3.935375990E-3,6.497542977E-2,6.533698381E-2
1.777334875E0,3.664738299E-2,-1.980913323E-2,4.865994394E-2,6.405640158E-2
1.787322875E0,-9.374277833E-3,2.643613219E-2,-3.950671256E-2,4.845127973E-2
1.797309875E0,9.692698696E-3,3.840362619E-2,-5.312838614E-2,6.626773216E-2
1.807297875E0,2.052252780E-2,2.469243539E-2,6.362881601E-2,7.127072849E-2
1.817285875E0,2.957716280E-2,2.260991984E-2,-1.001306444E-1,1.068277258E-1
1.827273875E0,-3.984374972E-4,1.905950306E-2,-1.475819689E-1,1.488081347E-1
1.837261875E0,8.958848007E-4,-3.689667309E-2,5.120465219E-2,6.311959680E-2
1.847249875E0,-3.560651122E-3,-4.172040902E-3,-2.652378881E-1,2.652945937E-1
1.857237875E0,3.703822367E-2,2.794217623E-2,-2.959240758E-1,2.995390691E-1
1.867225875E0,5.213928507E-3,2.601402489E-2,-9.569553137E-3,2.820444803E-2
1.877213875E0,4.427042544E-2,5.387706729E-3,-5.297869742E-2,6.925056197E-2
1.887200875E0,1.345688945E-2,7.091185201E-2,-9.908282340E-2,1.225846015E-1
1.897188875E0,3.737043003E-2,6.786362997E-2,-2.923315465E-1,3.024231380E-1
1.907176875E0,-1.966010918E-3,1.265636909E-2,-8.366546988E-2,8.464017798E-2
1.917164875E0,-1.538131548E-2,-8.618042129E-3,1.696078455E-1,1.705217780E-1
1.927152875E0,1.527904745E-2,5.163688020E-2,-1.134535253E-1,1.255847088E-1
1.937140875E0,2.860832484E-2,3.147093205E-2,-6.405624747E-2,7.688991257E-2
1.947128875E0,-1.014493058E-2,1.647659490E-2,9.491317391E-2,9.686541374E-2
1.957116875E0,-7.151748879E-3,8.028595283E-2,-5.836807609E-2,9.951790813E-2
1.967104875E0,2.868654963E-2,8.117305767E-2,-4.085449576E-2,9.529466535E-2
1.977091875E0,1.340987875E-2,4.950166890E-2,2.179573023E-1,2.239098607E-1
1.987079875E0,1.276864590E-3,3.845886410E-2,9.970321298E-2,1.068711621E-1
1.997067875E0,1.917460984E-2,8.232841266E-2,-1.341111535E-1,1.585289711E-1
2.007054625E0,-1.399004018E-3,6.003786729E-2,-1.316266716E-2,6.147974079E-2
2.017042625E0,-1.030192147E-2,-3.925314668E-3,2.029878455E-1,2.032869969E-1
2.027030625E0,4.272196168E-4,2.371715179E-2,9.820574105E-2,1.010299628E-1
2.037018625E0,2.614721807E-2,4.861377834E-2,-8.186978996E-2,9.874026010E-2
2.047006625E0,-6.990716332E-3,4.841021758E-2,2.410982430E-2,5.453166886E-2
2.056994625E0,-1.115347478E-2,2.336739008E-2,5.000655770E-2,5.631243852E-2
2.066981625E0,1.659449852E-2,5.984333773E-2,-3.022718132E-2,6.906724942E-2
2.076969625E0,9.336244093E-3,6.558814488E-2,1.572725594E-2,6.809050435E-2
2.086957625E0,-2.618793159E-2,3.574153051E-2,1.395204127E-1,1.463871932E-1
2.096945625E0,-1.110945164E-2,1.970470105E-2,-9.055173576E-2,9.333440956E-2
2.106933625E0,-1.700510325E-2,9.931860095E-3,-1.558154333E-1,1.570549733E-1
2.116921625E0,-9.743555768E-3,-1.126442341E-2,-4.998550773E-2,5.215721519E-2
2.126909625E0,-8.441948433E-3,7.300488569E-4,-6.315811515E-2,6.372399057E-2
2.136897625E0,6.116140749E-3,-2.512292750E-3,-7.408539176E-2,7.437986330E-2
2.146885625E0,2.610734052E-2,-1.484433095E-2,-8.860461295E-2,9.355599834E-2
2.156873625E0,-3.774745667E-2,-1.389823661E-2,-1.806637609E-1,1.850876170E-1
2.166860625E0,3.616710731E-3,-6.634188067E-3,-1.463850439E-1,1.465799240E-1
2.176848625E0,4.475382116E-2,3.135717858E-2,-1.348590124E-1,1.455098979E-1
2.186836625E0,-1.089847793E-2,1.329988258E-2,4.506682992E-2,4.823570106E-2
2.196824625E0,-3.338677683E-2,-6.769669653E-2,1.155702174E-1,1.380362080E-1
2.206812625E0,2.392565300E-3,-1.013876816E-2,-2.379951257E-1,2.382230023E-1
2.216800625E0,1.892635328E-2,3.743094643E-2,-1.820121288E-1,1.867824875E-1
2.226788625E0,-2.859800085E-2,1.951219061E-2,1.342801380E-1,1.386712901E-1
2.236776625E0,1.371239451E-2,2.729115958E-3,9.790519416E-2,9.889845743E-2
2.246764625E0,3.323300191E-2,6.067451487E-2,1.557639778E-2,7.091158818E-2
2.256751625E0,1.764424275E-2,6.349528022E-2,-4.639414787E-2,8.059396298E-2
2.266739625E0,-1.217933793E-2,2.523492452E-2,-9.384605706E-2,9.793988010E-2
2.276727625E0,-7.317904021E-3,3.314005859E-2,4.970542610E-2,6.018674759E-2
2.286715625E0,-3.926919797E-3,6.083776639E-2,4.686134040E-2,7.689369118E-2
2.296703625E0,6.435703647E-3,4.973015799E-2,3.563468635E-2,6.151697137E-2
2.306691625E0,2.471966834E-2,1.953681515E-3,1.692418098E-2,3.002177170E-2
2.316679625E0,-6.698123145E-3,7.932129015E-2,-9.369636834E-2,1.229460913E-1
2.326667625E0,4.769165416E-2,7.072795251E-2,-9.234916985E-2,1.257191565E-1
2.336655625E0,2.539525243E-2,3.471313776E-2,1.098802918E-1,1.179983021E-1
2.346643625E0,2.727950854E-2,2.181665596E-2,1.022467518E-1,1.080487682E-1
2.356630625E0,1.844101610E-2,7.481735352E-2,-9.025294304E-2,1.186730854E-1
2.366618625E0,1.281516210E-2,4.674250031E-2,-1.285738403E-1,1.374056844E-1
2.376606625E0,-2.218419914E-2,1.057234148E-2,1.198386848E-2,2.734092536E-2
2.386594625E0,2.227089325E-2,2.328366298E-2,-7.325976491E-3,3.304226959E-2
2.396582625E0,-4.565817757E-3,7.877928067E-2,2.515647590E-2,8.282433238E-2
2.406570625E0,4.402808348E-3,5.900239392E-2,3.952659309E-2,7.115489281E-2
2.416558625E0,-4.108261141E-3,4.243368710E-2,-1.237838012E-1,1.309195365E-1
2.426546625E0,2.292810887E-3,5.090675939E-2,-5.986671746E-2,7.861793048E-2
2.436534625E0,-2.075661971E-2,5.784339355E-2,3.623344123E-2,7.134113612E-2
2.446522625E0,-6.094084069E-3,2.214013946E-2,-2.962901115E-2,3.748602323E-2
2.456510625E0,-2.046918338E-2,1.807965475E-2,-6.600337029E-2,7.143042960E-2
2.466497625E0,8.128554234E-3,1.101876841E-2,-1.276751232E-1,1.284072573E-1
2.476485625E0,1.138141112E-2,-1.748914764E-2,-7.154185295E-2,7.452277188E-2
2.486473625E0,5.864307338E-3,8.351527867E-3,-2.618558586E-2,2.810379022E-2
2.496461625E0,4.199766068E-3,6.388753474E-3,-6.660154045E-2,6.703893940E-2
2.506449625E0,-1.523449440E-2,3.641850332E-3,-5.028546989E-2,5.266859952E-2
2.516437625E0,2.617246845E-2,-1.319528480E-2,-1.107591283E-1,1.145718035E-1
2.526425625E0,1.749631391E-2,8.876700337E-3,-6.126712561E-3,2.055367159E-2
2.536413625E0,1.241238716E-2,3.896860883E-2,-4.714142203E-2,6.240940234E-2
2.546401625E0,-1.854429369E-2,1.869437527E-2,-5.283017814E-2,5.902879143E-2
2.556389625E0,-1.179880068E-2,-2.303292706E-2,1.707503915E-2,3.100458657E-2
2.566376625E0,9.515084953E-3,6.134345918E-3,-1.493794030E-1,1.498077871E-1
2.576364625E0,2.742277218E-2,2.288053400E-2,-1.365067577E-1,1.411014606E-1
2.586352625E0,-1.236937586E-2,-1.903863695E-3,1.232031727E-1,1.238371831E-1
2.596340625E0,-1.340710818E-2,3.710618385E-2,1.393040657E-2,4.184107619E-2
2.606328625E0,3.233042479E-2,7.153025445E-2,-1.133050060E-1,1.378399726E-1
2.616316625E0,-3.828305934E-2,5.684511395E-2,3.249180794E-2,7.584640529E-2
2.626304625E0,1.415161862E-2,-9.219213556E-3,8.241650462E-3,1.879327035E-2
2.636292625E0,-1.326624053E-2,2.942853388E-2,6.602149665E-2,7.349061004E-2
2.646280625E0,-2.869653786E-2,7.435843846E-2,8.391339183E-3,8.014414032E-2
2.656268625E0,-1.341696051E-2,3.121408625E-2,2.066581428E-2,3.976694469E-2
2.666256625E0,2.654978517E-2,2.334450828E-2,4.671165168E-2,5.858187059E-2
2.676243625E0,2.544972290E-2,8.411356760E-2,2.395896614E-2,9.108684158E-2
2.686231625E0,1.662555272E-2,6.955587813E-2,6.257865608E-2,9.502903442E-2
2.696219625E0,4.588837742E-3,2.072126690E-2,1.193106812E-1,1.211836086E-1
2.706207625E0,-4.148326559E-3,6.003699020E-2,5.898612678E-2,8.426750239E-2
2.716195625E0,2.960581644E-2,7.281636781E-2,-1.215384704E-1,1.447422798E-1
2.726183625E0,1.302960760E-2,2.768067550E-2,-6.301018059E-2,7.004479516E-2
2.736171625E0,-4.061752365E-2,-6.397672762E-3,5.763892829E-2,7.080225631E-2
2.746159625E0,1.301419470E-3,3.640390813E-2,-1.092639953E-1,1.151762080E-1
2.756147625E0,-3.564439250E-3,4.372277431E-2,-1.107608825E-1,1.191316890E-1
2.766135625E0,-1.658117669E-2,2.885740024E-2,-1.615047741E-1,1.648983839E-1
2.776123625E0,2.188766080E-2,2.815523415E-2,-2.103038818E-1,2.133061405E-1
2.786111625E0,4.195771918E-2,2.155446315E-2,-1.588109618E-1,1.656682428E-1
2.796098625E0,1.873877300E-3,2.316059051E-2,-2.124644279E-2,3.148548396E-2
2.806086625E0,-1.658375883E-2,-4.011666166E-3,2.620488167E-2,3.126995916E-2
2.816074625E0,-3.199147015E-3,2.308976382E-2,-2.740706921E-1,2.750602043E-1
2.826062625E0,1.239502253E-2,-1.331401868E-2,-2.688321716E-1,2.694469078E-1
2.836050625E0,3.559487275E-2,-5.980923202E-2,9.221702278E-2,1.155340577E-1
2.846038625E0,2.491238434E-2,1.477548912E-2,4.506566048E-2,5.357103440E-2
2.856026625E0,2.300866568E-2,4.374006928E-2,-1.146527892E-1,1.248513293E-1
2.866014625E0,-9.476520167E-3,1.521760029E-2,-4.040718377E-2,4.420543284E-2
2.876002625E0,-5.120458138E-3,-3.356690076E-2,8.091961741E-3,3.490609923E-2
2.885990625E0,3.068906567E-2,1.600044654E-2,1.655346751E-3,3.464928879E-2
2.895977625E0,1.838401489E-2,5.860078613E-2,2.665277839E-2,6.695068883E-2
2.905965625E0,-2.621358397E-2,1.478695628E-2,1.604750794E-1,1.632729530E-1
2.915953625E0,-5.520374570E-2,-1.739335609E-2,5.389612556E-2,7.908713375E-2
2.925941625E0,-1.445789394E-2,1.637411102E-2,-9.728948236E-2,9.971151180E-2
2.935929625E0,2.691701086E-2,3.422770237E-2,1.961740851E-2,4.775880861E-2
2.945917625E0,-1.609419156E-2,1.833748613E-2,1.489484632E-1,1.509335320E-1
2.955905625E0,-4.836446312E-2,2.219050089E-2,1.249982679E-1,1.358532539E-1
2.965893625E0,2.214368662E-2,6.739980415E-2,-1.750539422E-2,7.307198700E-2
2.975881625E0,-1.175950214E-2,8.778851523E-2,-2.543889642E-2,9.215338707E-2
2.985869625E0,-2.478266066E-2,6.841417045E-3,4.648536444E-3,2.612650279E-2
2.995857625E0,2.156385524E-2,2.081186905E-2,3.054468513E-2,4.279148906E-2
3.005845625E0,8.859182102E-3,6.015285644E-2,-3.696492791E-2,7.115656780E-2
3.015833625E0,-2.715368605E-2,5.701934727E-2,-5.148473382E-2,8.148132575E-2
3.025820625E0,2.456764301E-2,5.752529588E-3,-5.178352654E-2,5.760376985E-2
3.035808625E0,2.518160294E-2,5.501595872E-2,-1.177962524E-1,1.324266813E-1
3.045796625E0,5.722054174E-2,5.960539717E-2,-1.571643859E-1,1.775602376E-1
3.055784625E0,5.977647847E-2,1.805242865E-2,9.888226390E-3,6.322099794E-2
3.065772625E0,5.562074811E-3,2.099338855E-2,-1.338427663E-3,2.175891605E-2
3.075760625E0,2.436235093E-2,6.812207690E-2,-2.658389819E-1,2.755077236E-1
3.085748625E0,2.577315615E-2,3.153584300E-2,-1.538718188E-1,1.591706681E-1
3.095736625E0,-1.476010820E-2,-2.619885515E-3,-8.224693537E-3,1.709883557E-2
3.105724625E0,-5.283065551E-3,1.511191187E-2,-3.037862420E-2,3.433862942E-2
3.115712625E0,7.108486335E-3,2.675188184E-2,-1.287241137E-1,1.316665911E-1
3.125700625E0,-2.727311543E-2,3.931518883E-2,-8.291878045E-2,9.573416866E-2
3.135688625E0,-1.715100270E-2,2.299027436E-2,3.151649237E-3,2.885554543E-2
3.145675625E0,4.403610741E-2,4.890995809E-2,-1.237843859E-1,1.401924996E-1
3.155663625E0,5.822906310E-3,4.068746639E-2,6.444801092E-3,4.160422599E-2
3.165651625E0,-2.200816597E-2,-9.664097589E-3,1.299379957E-1,1.321424870E-1
3.175639625E0,1.860683834E-2,1.353297178E-2,-8.681127191E-2,8.980842215E-2
3.185627625E0,-1.361073632E-2,1.732210913E-2,-1.728822863E-1,1.742802127E-1
3.195615625E0,2.260603007E-2,-4.957118225E-2,8.802515388E-2,1.035217968E-1
3.205603625E0,-1.097273871E-2,2.675694448E-3,1.600254285E-1,1.604234961E-1
3.215591625E0,2.909562860E-2,5.831905084E-2,-1.300713122E-1,1.454861284E-1
3.225579625E0,-2.087922852E-2,5.035301893E-2,-1.022292101E-1,1.158541329E-1
3.235567625E0,1.657293691E-2,-4.907036366E-2,1.112269056E-1,1.226946916E-1
3.245555625E0,1.606978172E-3,3.043497217E-2,3.338877082E-2,4.520707828E-2
3.255543625E0,2.326560056E-2,5.985915262E-2,-6.884862542E-2,9.415168371E-2
3.265531625E0,-5.159971383E-2,2.199776661E-2,1.016468275E-1,1.160969842E-1
3.275519625E0,-8.329109162E-3,-4.089758700E-2,2.365900397E-2,4.797640202E-2
3.285506625E0,-5.231830009E-2,3.236414449E-2,-9.669072747E-2,1.146025268E-1
3.295494625E0,4.958268025E-2,2.269406493E-2,4.132227302E-2,6.841778286E-2
3.305482625E0,2.299241225E-2,1.084248171E-2,2.134648865E-1,2.149731802E-1
3.315470625E0,-4.984146522E-2,4.817202577E-2,6.646997809E-2,9.603631454E-2
3.325458625E0,2.670776734E-2,8.968858623E-2,-1.454892504E-1,1.729869051E-1
3.335446625E0,3.565972431E-2,5.479052114E-2,3.174219489E-2,7.267175573E-2
3.345434625E0,-1.969608783E-2,7.795808834E-3,7.724756598E-2,8.009929439E-2
3.355422625E0,2.225951859E-2,4.387329900E-2,-1.281253588E-1,1.372459839E-1
3.365410625E0,-1.776370982E-2,5.982835424E-2,-2.873204827E-2,6.870598195E-2
3.375398625E0,-2.833066433E-2,2.150936422E-2,-1.406255364E-2,3.824963667E-2
3.385386625E0,1.632275032E-2,2.814164395E-2,-2.141957885E-1,2.166523024E-1
3.395374625E0,4.382638423E-2,7.317845664E-2,-2.115019763E-1,2.280546523E-1
3.405362625E0,3.228971811E-2,5.921074666E-2,6.542274177E-2,9.396102147E-2
3.415349625E0,1.624695121E-2,5.511531798E-3,1.191609925E-1,1.203897111E-1
3.425337625E0,2.829686468E-2,2.602963422E-2,-1.751270324E-1,1.792978859E-1
3.435325625E0,3.844833911E-2,5.536270774E-2,-2.902382433E-1,2.979623166E-1
3.445313625E0,5.683555741E-2,1.443323514E-2,1.497764289E-2,6.052213355E-2
3.455301625E0,-2.011118532E-2,-6.486520747E-3,1.145206422E-1,1.164539059E-1
3.465289625E0,-4.841145098E-3,1.194995006E-2,-7.423683465E-2,7.534816262E-2
3.475277625E0,3.160528553E-3,3.070750496E-2,-1.263285094E-1,1.300455001E-1
3.485265625E0,-1.596063865E-2,2.433580776E-2,-7.543434441E-2,8.085365695E-2
3.495253625E0,-2.439844835E-2,4.128254849E-2,-8.157216668E-2,9.462320788E-2
3.505241625E0,3.687118974E-2,4.583354150E-2,1.482736945E-2,6.066340779E-2
3.515229625E0,-1.619168817E-2,4.656654480E-2,6.961344123E-2,8.530325352E-2
3.525217625E0,-1.374781242E-2,1.668101904E-2,-1.097136462E-1,1.118228192E-1
3.535205625E0,-2.566135100E-3,1.583000819E-2,-1.004323608E-1,1.017046375E-1
3.545193625E0,1.205184350E-2,6.620698358E-4,4.326881111E-2,4.492076672E-2
3.555181625E0,4.804062330E-2,-2.171101778E-2,7.425437629E-2,9.106581235E-2
3.565168625E0,1.099333759E-2,3.746153468E-3,7.290717781E-2,7.382644318E-2
3.575156625E0,2.217052899E-3,2.227061003E-2,-4.265251458E-2,4.816775264E-2
3.585144625E0,2.936843547E-2,1.425383982E-2,-2.873146355E-2,4.348762984E-2
3.595132625E0,1.285684293E-2,-3.700812422E-2,1.452068299E-1,1.503992125E-1
3.605120625E0,1.993000843E-2,1.060460167E-2,7.560157478E-2,7.890032270E-2
3.615108625E0,-3.388939983E-3,6.498833933E-2,1.198328376E-2,6.617075073E-2
3.625096625E0,-4.518892252E-2,1.829084545E-2,1.278423536E-1,1.368220052E-1
3.635084625E0,-3.872306689E-2,-7.135586239E-3,6.317624152E-2,7.444212512E-2
3.645072625E0,-4.385358749E-2,4.520704889E-2,-4.400088251E-2,7.683028092E-2
3.655060625E0,5.383377048E-2,1.992236822E-2,-1.104626745E-1,1.244868590E-1
3.665048625E0,-1.043184386E-3,-1.197101488E-3,-3.127675653E-2,3.131703665E-2
3.675036625E0,-4.557444133E-2,1.479845771E-2,6.946375251E-2,8.438742184E-2
3.685024625E0,1.472221664E-2,7.791120669E-2,-2.035684741E-1,2.184651538E-1
3.695012625E0,5.059185485E-2,5.197755817E-2,-2.573067248E-1,2.673349078E-1
3.705000625E0,-3.209047424E-2,-6.721375535E-3,-8.950566888E-2,9.532177184E-2
3.714987625E0,5.506087721E-2,-8.754949773E-3,-1.237843859E-1,1.357605375E-1
3.724975625E0,-3.400993241E-2,7.056880318E-2,-3.097737908E-2,8.423912096E-2
3.734963625E0,-1.420484769E-2,2.868200661E-2,-6.435796380E-2,7.187755356E-2
3.744951625E0,5.260806161E-3,2.057383941E-2,-2.035690588E-1,2.046736931E-1
3.754939625E0,2.474185806E-2,5.734217068E-3,-3.037862420E-2,3.959673716E-2
3.764927625E0,4.146966396E-4,5.411310751E-2,-3.546862543E-2,6.470257929E-2
3.774915625E0,3.996392827E-2,1.549753117E-2,3.129312873E-2,5.307116864E-2
3.784903625E0,-3.008254952E-2,5.445880586E-2,4.895639777E-2,7.916722936E-2
3.794891625E0,4.118878748E-2,2.278465337E-2,-1.609071887E-1,1.676507680E-1
3.804879625E0,9.221417226E-2,-4.754526820E-2,-4.400088251E-2,1.126946483E-1
3.814867625E0,8.277565157E-3,-2.932213968E-2,1.652645338E-1,1.680496120E-1
3.824855625E0,-2.728034908E-2,6.580502177E-2,-3.936053216E-2,8.138654574E-2
3.834843625E0,3.635119182E-2,1.538531945E-2,-2.843325555E-2,4.864737632E-2
3.844831625E0,1.869218714E-2,-1.485463438E-2,6.018246710E-2,6.474555868E-2
3.854819625E0,3.127860662E-3,6.479110087E-2,-4.894061029E-2,8.125794484E-2
3.864807625E0,4.375352701E-2,7.719359801E-2,-5.231503844E-3,8.888527062E-2
3.874794625E0,4.881586817E-2,2.596512984E-2,1.444572169E-1,1.546772913E-1
3.884782625E0,-4.135089240E-2,8.353345415E-3,7.664822638E-2,8.749071544E-2
3.894770625E0,1.999563200E-2,3.008398392E-2,-9.339816034E-2,1.001403402E-1
3.904758625E0,2.891825925E-2,3.172713374E-2,1.153363287E-2,4.445111271E-2
3.914746625E0,2.734213770E-2,-4.689307525E-2,1.610726649E-1,1.699733990E-1
3.924734625E0,1.440310827E-3,1.114361445E-2,3.234036505E-2,3.423673247E-2
3.934722625E0,1.104764474E-2,6.546363117E-2,-1.067204565E-1,1.256852947E-1
3.944710625E0,-4.035876151E-3,3.251619265E-2,4.012417853E-2,5.180290324E-2
3.954698625E0,6.920177441E-3,-7.202392961E-3,2.874783576E-2,3.043355682E-2
3.964686625E0,2.210004949E-2,3.704096912E-2,-9.923660517E-2,1.082051264E-1
3.974674625E0,-2.435796095E-2,7.072962445E-2,2.186215460E-2,7.793551078E-2
3.984662625E0,-5.507950150E-2,1.443476775E-2,-6.944796503E-2,8.980609028E-2
3.994650625E0,-3.193503652E-2,-8.476192903E-3,-2.519191003E-1,2.540766134E-1
4.004639000E0,-2.403060823E-2,-1.026753367E-3,-1.269290185E-1,1.291878481E-1
4.014627000E0,1.449158396E-2,-8.608873878E-3,-1.305215478E-1,1.316054450E-1
4.024614000E0,2.188292592E-2,-1.382575968E-2,-8.486648798E-2,8.872617911E-2
4.034602000E0,-4.143989341E-2,3.556951045E-2,8.389585018E-3,5.525251104E-2
4.044590000E0,1.292271318E-2,7.026929326E-2,-3.442776257E-1,3.516132160E-1
4.054578000E0,4.667287277E-2,9.673812875E-3,-1.151041943E-1,1.245829653E-1
4.064566000E0,1.021348804E-2,-3.376508026E-2,1.854707569E-1,1.887956505E-1
4.074554000E0,2.761073960E-2,2.926345054E-2,-8.351987422E-2,9.270529579E-2
4.084542000E0,3.025390492E-3,1.252775432E-2,-4.160703242E-2,4.355735027E-2
4.094530000E0,-2.324939281E-2,-4.010164391E-2,2.126223028E-2,5.099763275E-2
4.104518000E0,2.394568199E-2,2.035910955E-2,-1.324680859E-1,1.361458145E-1
4.114506000E0,4.766525033E-2,5.444057442E-2,-3.735786080E-3,7.245487099E-2
4.124494000E0,-7.408805384E-3,2.901246338E-2,1.416113770E-1,1.447425146E-1
4.134482000E0,6.209157730E-3,3.004164642E-3,9.835133672E-2,9.859292104E-2
4.144470000E0,3.218530420E-2,6.179658185E-2,-1.034290588E-1,1.247087869E-1
4.154458000E0,4.120408160E-2,8.246928488E-2,-1.465394104E-1,1.731264222E-1
4.164446000E0,7.748223119E-4,1.385487128E-2,1.127214539E-1,1.135723733E-1
4.174434000E0,-6.519232036E-3,2.194757420E-2,1.220021546E-1,1.241318739E-1
4.184422000E0,-1.292132333E-2,9.647118280E-2,-4.699641109E-2,1.080847462E-1
4.194409000E0,-1.868731750E-2,6.723607298E-2,-4.999018550E-2,8.584243701E-2
4.204397000E0,3.887143313E-3,1.843476118E-2,-6.795283198E-2,7.051622280E-2
4.214385000E0,-1.362028944E-3,6.776076009E-2,2.700244188E-3,6.782821720E-2
4.224373000E0,1.540289764E-2,8.805004109E-2,1.248462403E-1,1.535468746E-1
4.234361000E0,-9.890480766E-3,5.716376436E-2,1.317319214E-1,1.439403234E-1
4.244349000E0,-2.207853356E-2,3.822654692E-2,-6.196528316E-2,7.608171166E-2
4.254337000E0,3.045079163E-3,5.433174769E-2,-1.230382812E-1,1.345348652E-1
4.264325000E0,2.598734926E-2,2.165875829E-2,-7.927654982E-3,3.474610548E-2
4.274313000E0,-2.782101210E-3,-3.399451038E-2,1.404144520E-1,1.444976994E-1
4.284301000E0,2.879449928E-3,-1.131941579E-2,6.377382696E-2,6.483456956E-2
4.294289000E0,-6.311671869E-3,3.872400792E-2,-2.034205395E-1,2.071697417E-1
4.304277000E0,1.816142327E-2,-4.671695186E-3,-1.374078137E-1,1.386815391E-1
4.314265000E0,-9.780535981E-3,-3.865915865E-2,-8.636395991E-2,9.512582721E-2
4.324253000E0,1.716425030E-2,1.462588833E-2,-1.360606152E-1,1.379167107E-1
4.334241000E0,2.031220848E-2,3.727283178E-2,7.754577398E-2,8.840360210E-2
4.344229000E0,-3.503541298E-2,1.254522859E-2,-5.058777094E-2,6.280115836E-2
4.354217000E0,-2.480505139E-2,1.903079117E-3,-3.478695703E-1,3.487580109E-1
4.364204000E0,-3.270985426E-2,-3.094716542E-2,-1.171992517E-1,1.255520856E-1
4.374192000E0,2.639289249E-2,-2.525748198E-2,-7.049637079E-2,7.939939210E-2
4.384180000E0,1.047589897E-2,-5.788885679E-3,6.242721319E-2,6.356423997E-2
4.394168000E0,-3.722641494E-2,2.477198036E-2,7.754577398E-2,8.951426726E-2
4.404156000E0,-8.046998138E-3,5.146661659E-2,-2.613500744E-1,2.664909533E-1
4.414144000E0,2.537380960E-2,4.532656050E-2,-8.905835688E-2,1.031005249E-1
4.424132000E0,1.000028394E-2,2.594619262E-2,1.673590064E-1,1.696533160E-1
4.434120000E0,-2.751039133E-2,6.862835441E-2,7.964141607E-2,1.086711913E-1
4.444108000E0,-2.204499087E-3,5.386874414E-2,-5.956909418E-2,8.034412482E-2
4.454096000E0,-3.151943882E-2,1.860011176E-2,-7.857956171E-2,8.668440863E-2
4.464084000E0,6.453044296E-3,2.531899880E-2,3.278943121E-2,4.192660588E-2
4.474072000E0,2.875103117E-2,6.874459980E-2,3.189129889E-2,8.105243204E-2
4.484060000E0,2.267515284E-2,5.053013018E-2,2.156277716E-2,5.943408089E-2
4.494048000E0,1.083308048E-3,2.839406550E-2,7.799542487E-2,8.301013680E-2
4.504036000E0,6.117743480E-2,5.478507136E-2,-3.427053094E-2,8.898624536E-2
4.514024000E0,-6.292475414E-3,1.091788452E-1,-9.160131097E-2,1.426548831E-1
4.524011000E0,5.212031246E-2,3.093726399E-2,1.613726270E-1,1.723797147E-1
4.533999000E0,1.603310529E-2,2.930025831E-2,1.348777235E-1,1.389516674E-1
4.543987000E0,1.426388059E-2,5.636323943E-2,-1.091148913E-1,1.236379090E-1
4.553975000E0,-3.109924328E-2,1.998298055E-2,3.728067756E-2,5.250077488E-2
4.563963000E0,1.669012105E-2,-3.386967690E-2,8.832453132E-2,9.605695178E-2
4.573951000E0,-9.519427538E-3,6.484879644E-2,-4.010839105E-2,7.684184363E-2
4.583939000E0,4.503843895E-2,3.312603669E-2,-2.289418817E-2,6.041472620E-2
4.593927000E0,6.097943574E-3,-2.519930676E-2,4.910608649E-2,5.553015134E-2
4.603915000E0,-1.430685420E-2,-2.397553020E-2,-3.202520013E-2,4.248676934E-2
4.613903000E0,-2.960632578E-4,5.678986690E-2,-1.965331042E-1,2.045737952E-1
4.623891000E0,2.211116376E-2,3.358255805E-3,-9.579259515E-2,9.836870808E-2
4.633879000E0,2.476712671E-3,-6.880224969E-2,8.069099128E-2,1.060703528E-1
4.643867000E0,3.448398857E-2,-3.801995748E-2,-9.459508538E-2,1.076238487E-1
4.653855000E0,4.134518793E-3,3.650483883E-2,-2.809575427E-1,2.833493220E-1
4.663843000E0,1.405144736E-2,-2.123395351E-2,-8.636220574E-2,9.003751738E-2
4.673831000E0,-1.218233577E-2,-5.235924887E-2,5.995734930E-3,5.409111835E-2
4.683819000E0,2.197774675E-2,-3.476460924E-3,-1.357594836E-1,1.375708709E-1
4.693807000E0,6.794674151E-3,2.302526401E-2,4.656137824E-2,5.238599358E-2
4.703794000E0,-2.470734350E-2,3.623189492E-3,-5.986730218E-2,6.486658766E-2
4.713782000E0,-4.821906388E-2,7.672352070E-3,-1.287241137E-1,1.376729478E-1
4.723770000E0,-2.766014401E-2,-4.847718647E-3,2.425834358E-2,3.710864018E-2
4.733758000E0,-5.033093656E-3,-1.583092296E-2,5.165137947E-2,5.425693646E-2
4.743746000E0,6.520263864E-3,-1.621689744E-2,7.066184700E-2,7.279147082E-2
4.753734000E0,-2.240844215E-2,4.714126215E-2,-1.645698845E-2,5.472905394E-2
4.763722000E0,1.294074933E-2,7.579665251E-2,-1.412973815E-1,1.608649917E-1
4.773710000E0,3.428643491E-2,2.845592265E-2,1.386205262E-1,1.456054581E-1
4.783698000E0,-3.263451198E-2,2.761839352E-2,1.643675709E-1,1.698366432E-1
4.793686000E0,-3.339911308E-3,6.975755225E-2,-1.008808422E-1,1.226956211E-1
4.803674000E0,1.910291064E-2,5.824698847E-2,1.482853889E-2,6.306757033E-2
4.813662000E0,-1.673103557E-2,1.024954435E-2,6.617118537E-2,6.901888498E-2
4.823650000E0,-2.478567563E-2,4.789796038E-2,5.240040779E-2,7.519539256E-2
4.833638000E0,5.010902559E-2,7.523861800E-2,9.074878693E-4,9.040236512E-2
4.843626000E0,-1.533949646E-3,8.984854412E-2,-1.735453606E-2,9.152209462E-2
4.853614000E0,1.573006649E-2,2.775741335E-2,9.745671272E-2,1.025461839E-1
4.863602000E0,3.018212349E-2,7.168930328E-2,-2.558683097E-2,8.188408089E-2
4.873589000E0,3.821846131E-2,9.347740838E-2,-1.469843835E-1,1.783341965E-1
4.883577000E0,1.557946300E-2,3.439619583E-2,1.707445443E-2,4.144098151E-2
4.893565000E0,8.842783631E-3,1.497252658E-3,8.907472908E-2,8.952510234E-2
4.903553000E0,-2.387322220E-2,5.207640809E-2,-6.525375724E-2,8.683280401E-2
4.913541000E0,8.253547034E-3,8.911419322E-3,-2.255703771E-1,2.258971657E-1
4.923529000E0,-9.181986093E-3,-3.239076303E-2,-1.254292077E-1,1.298689976E-1
4.933517000E0,2.921853662E-2,1.145266264E-3,-3.501722038E-2,4.562061201E-2
4.943505000E0,1.716963613E-2,4.764433740E-2,7.201079965E-2,8.803598444E-2
4.953493000E0,3.938532573E-3,-5.233542375E-3,1.557815194E-2,1.689913674E-2
4.963481000E0,-1.449411927E-2,-2.603391685E-3,-1.767718542E-1,1.773841751E-1
4.973469000E0,3.304213143E-2,1.236234893E-2,-1.956326330E-1,1.987881717E-1
4.983457000E0,1.076534757E-2,8.217681446E-3,-6.330838859E-2,6.474082995E-2
4.993445000E0,-1.318332427E-2,-4.458931340E-2,5.374819100E-2,7.106950784E-2
5.003432667E0,2.664044670E-2,-4.528675832E-2,1.440104896E-1,1.532958740E-1
5.013420667E0,1.651339124E-2,3.239852658E-2,-2.369473046E-1,2.397214671E-1
5.023408667E0,-7.625888975E-3,1.884576106E-2,-3.224201488E-1,3.230604731E-1
5.033396667E0,-7.763402468E-3,-7.119570692E-2,1.374241859E-1,1.549661446E-1
5.043383667E0,1.859786310E-2,-2.106125736E-2,1.676613075E-1,1.699993267E-1
5.053371667E0,-1.966005208E-2,6.216697098E-2,-4.414764762E-2,7.874175969E-2
5.063359667E0,-2.731521539E-2,4.418284512E-2,-1.195913476E-1,1.303853336E-1
5.073347667E0,-1.843500101E-2,1.548146275E-3,-1.959928215E-2,2.695139847E-2
5.083335667E0,-3.698470795E-2,3.946822143E-2,5.359850228E-2,7.614728210E-2
5.093323667E0,2.393352161E-3,1.753743970E-2,-2.139554679E-2,2.776795543E-2
5.103311667E0,-1.980446917E-2,-5.837816710E-3,1.522433692E-1,1.536370417E-1
5.113299667E0,-2.875669566E-2,5.451574769E-2,7.934496224E-2,1.004715747E-1
5.123287667E0,-9.396557780E-3,1.140865595E-1,-1.987766808E-1,2.293822295E-1
5.133275667E0,1.933741368E-2,3.109698890E-2,4.162340462E-2,5.543885009E-2
5.143263667E0,-1.529289575E-2,2.739215424E-2,2.917532569E-1,2.934351133E-1
5.153251667E0,1.326123385E-2,7.729750486E-2,-4.729169548E-2,9.158203449E-2
5.163239667E0,-3.928377604E-3,3.284138464E-2,-7.184006095E-2,7.908845082E-2
5.173227667E0,-5.110199701E-2,-1.998582193E-2,5.060589731E-2,7.464451767E-2
5.183215667E0,1.775935981E-2,2.832756028E-2,-2.064593375E-2,3.929503929E-2
5.193203667E0,7.800551131E-2,4.911229002E-2,-7.109044790E-2,1.164075969E-1
5.203190667E0,2.899716925E-2,1.797782412E-3,1.123834848E-2,3.115073551E-2
5.213178667E0,1.356282912E-2,-6.606272181E-3,-1.959694326E-2,2.473122219E-2
5.223166667E0,5.475879086E-2,4.547385095E-2,-1.921880382E-1,2.049454521E-1
5.233154667E0,4.233045633E-2,8.903866821E-2,-1.939843029E-1,2.175997742E-1
5.243142667E0,5.310502925E-2,-1.026126619E-2,-6.165947378E-2,8.202029275E-2
5.253130667E0,7.433048488E-3,-2.071531462E-2,3.533998668E-2,4.163278910E-2
5.263118667E0,-1.806075865E-2,4.295356852E-2,-1.885943395E-1,1.942653467E-1
5.273106667E0,-3.325955420E-2,1.200707690E-2,-1.872471410E-1,1.905567098E-1
5.283094667E0,1.070370398E-2,-4.830928002E-2,8.952788830E-2,1.022917328E-1
5.293082667E0,2.257593518E-2,3.890527618E-2,-1.571597081E-1,1.634700805E-1
5.303070667E0,-1.135171366E-2,7.609957026E-2,-5.432355702E-2,9.418627736E-2
5.313058667E0,3.042596381E-2,-2.105978414E-2,1.750001478E-1,1.788695209E-1
5.323046667E0,-1.439264496E-2,1.643679957E-2,-1.121028185E-1,1.142119018E-1
5.333034667E0,1.932319193E-3,6.298891135E-2,-2.358959752E-1,2.441684827E-1
5.343022667E0,1.934642205E-2,2.752534513E-2,1.127296400E-1,1.176431061E-1
5.353010667E0,-2.989802419E-3,-5.708566292E-2,1.673666078E-1,1.768595297E-1
5.362998667E0,1.189779107E-2,-2.065751626E-3,-1.243767089E-1,1.249615560E-1
5.372986667E0,8.802426994E-3,6.815982342E-2,-2.346978807E-1,2.445533469E-1
5.382973667E0,-3.275994617E-2,2.252070640E-2,1.290462953E-1,1.350308950E-1
5.392961667E0,1.661032712E-2,-2.070436936E-2,1.272500306E-1,1.299890156E-1
5.402949667E0,3.788928591E-2,2.156626722E-2,-6.240557849E-2,7.612593576E-2
5.412937667E0,-1.471757884E-2,5.368576284E-2,4.282559216E-2,7.023389212E-2
5.422925667E0,-2.831555065E-2,4.488294412E-2,3.309582531E-2,6.254264733E-2
5.432913667E0,-2.379851603E-3,4.134811040E-2,3.384426892E-2,5.348611470E-2
5.442901667E0,-1.215470653E-2,1.778531140E-2,4.282559216E-2,4.793835141E-2
5.452889667E0,-2.154096431E-2,-2.641637957E-2,6.602734387E-2,7.430644919E-2
5.462877667E0,1.091965582E-2,-2.344973304E-2,8.878061414E-2,9.247230023E-2
5.472865667E0,8.750599764E-3,4.369736176E-2,-3.995110095E-2,5.985083866E-2
5.482853667E0,-4.779628735E-2,7.725783516E-2,-1.317108715E-1,1.600031620E-1
5.492841667E0,4.171293098E-2,-6.547351205E-4,3.788644910E-2,5.635406209E-2
5.502829667E0,1.029213537E-2,4.764639306E-2,1.856303859E-1,1.919238051E-1
5.512817667E0,-9.657855229E-3,5.823662337E-2,-8.755152941E-2,1.055937913E-1
5.522805667E0,1.425924164E-2,1.319325654E-2,-2.971157384E-1,2.977501469E-1
5.532793667E0,-2.555969395E-2,-1.561753842E-2,-1.008738256E-1,1.052270599E-1
5.542780667E0,-2.546272382E-2,2.982616739E-2,-1.076121569E-2,4.066637836E-2
5.552768667E0,7.449330814E-2,8.155864271E-3,-1.507201695E-1,1.683221334E-1
5.562756667E0,-1.894820268E-2,-4.534967070E-2,-5.671214461E-3,4.947514215E-2
5.572744667E0,9.104781148E-3,1.999036266E-3,-8.320938706E-2,8.372989479E-2
5.582732667E0,5.978710396E-2,1.120383073E-1,-3.667204088E-1,3.880862511E-1
5.592720667E0,7.307501117E-2,3.905015465E-2,4.806762099E-2,9.578814135E-2
5.602708667E0,2.520319196E-2,1.484961856E-2,1.712614381E-1,1.737417401E-1
5.612696667E0,4.346742915E-2,2.795770333E-2,-3.575806260E-2,6.284655610E-2
5.622684667E0,-4.775669530E-2,4.765321786E-2,-4.309280992E-2,8.005324094E-2
5.632672667E0,1.038298763E-3,-1.874894396E-2,-1.534139818E-1,1.545588910E-1
5.642660667E0,-2.732260663E-2,-1.073182543E-2,3.863664687E-2,4.852306041E-2
5.652648667E0,2.959947129E-2,1.708810973E-2,7.141847670E-2,7.917531818E-2
5.662636667E0,-7.459917015E-2,6.297300509E-2,1.083921754E-1,1.458749439E-1
5.672624667E0,8.653599938E-3,9.473955729E-3,-9.561951756E-3,1.600223580E-2
5.682612667E0,1.879600491E-2,2.440739504E-2,-1.802076781E-1,1.828218203E-1
5.692600667E0,2.456705372E-3,2.781340501E-2,3.519439101E-2,4.492511612E-2
5.702588667E0,1.495088503E-2,4.280560428E-3,8.758544326E-2,8.895539349E-2
5.712575667E0,-3.052652450E-2,-2.810007390E-2,5.899548233E-2,7.212454357E-2
5.722563667E0,-9.784002055E-3,-4.081293485E-2,7.710781753E-2,8.778973671E-2
5.732551667E0,2.851639108E-2,-1.009085754E-2,-1.195831615E-1,1.233496756E-1
5.742539667E0,1.231283717E-2,-1.184455400E-2,-5.985736191E-2,6.224791718E-2
5.752527667E0,5.156464196E-3,-1.367871249E-2,1.341392201E-1,1.349334157E-1
5.762515667E0,1.788300330E-2,2.122404522E-3,1.619819069E-1,1.629798901E-1
5.772503667E0,-7.984021227E-3,2.589979406E-2,1.828073502E-2,3.269142395E-2
5.782491667E0,-1.317192905E-2,2.868362145E-2,-9.698016465E-2,1.019872648E-1
5.792479667E0,-8.037841878E-3,3.379745008E-2,4.731976211E-2,5.870293366E-2
5.802467667E0,-1.212613169E-2,3.782603777E-3,7.875439346E-2,7.977221101E-2
5.812455667E0,-6.008930908E-2,-1.467337069E-3,-4.922946274E-2,7.769438941E-2
5.822443667E0,3.411782725E-2,-1.287575045E-2,-7.316620946E-3,3.719333311E-2
5.832431667E0,1.687160972E-3,4.500292168E-2,-5.806109726E-2,7.347925209E-2
5.842419667E0,1.297585090E-4,4.775331031E-2,-2.308012962E-1,2.356896982E-1
5.852407667E0,2.321711892E-2,2.893767383E-2,-1.414377147E-1,1.462226067E-1
5.862395667E0,3.255306666E-2,7.470822073E-2,3.833843887E-2,9.006029251E-2
5.872382667E0,-3.146721130E-2,8.309649926E-2,8.489280045E-2,1.228901995E-1
5.882370667E0,4.030440525E-2,1.325670340E-2,-2.721153831E-1,2.754032807E-1
5.892358667E0,-3.993341769E-2,1.974090125E-2,-1.089546776E-1,1.177093998E-1
5.902346667E0,2.129720394E-2,3.596729242E-2,3.684213638E-2,5.571857888E-2
5.912334667E0,4.264724295E-2,4.624132541E-2,-1.120981407E-1,1.285419801E-1
5.922322667E0,1.244745218E-2,-1.761881764E-2,8.953315079E-2,9.209531417E-2
5.932310667E0,4.340898668E-3,1.196416039E-2,3.250174820E-2,3.490484453E-2
5.942298667E0,4.224695535E-2,3.489977357E-2,-2.474167442E-1,2.534124006E-1
5.952286667E0,3.853505606E-2,1.281445404E-2,-1.899175644E-2,4.483132377E-2
5.962274667E0,2.059698616E-2,-1.657036619E-2,2.407187587E-1,2.421659218E-1
5.972262667E0,1.413810378E-2,2.436535219E-2,-8.859642684E-2,9.296710825E-2
5.982250667E0,-3.639379199E-2,1.986126253E-2,-1.875406712E-1,1.920689491E-1
5.992238667E0,-4.301358471E-2,-3.364865215E-2,1.507558376E-1,1.603425172E-1
6.002227625E0,-1.860977794E-2,-3.672740533E-2,-3.126506209E-2,5.169845496E-2
6.012215625E0,1.713232816E-2,2.683034873E-3,-1.710749120E-1,1.719515654E-1
6.022203625E0,-5.895709170E-2,2.949788278E-2,1.217168105E-1,1.384234290E-1
6.032191625E0,2.552916738E-2,-7.248446066E-4,1.160286391E-1,1.188061820E-1
6.042178625E0,2.989441993E-2,3.813326327E-2,-1.426340550E-1,1.506396221E-1
6.052166625E0,1.505471879E-3,2.651024337E-2,-1.794335067E-2,3.204720397E-2
6.062154625E0,2.160146928E-2,-1.573227518E-2,1.139324123E-1,1.170244527E-1
6.072142625E0,-2.617786799E-2,-2.053203410E-2,1.113877040E-1,1.162500142E-1
6.082130625E0,-3.848859468E-3,-3.291103046E-4,-9.560782313E-3,1.031167257E-2
6.092118625E0,4.328605126E-2,-1.336629987E-2,-1.270670128E-1,1.349013193E-1
6.102106625E0,-1.417542889E-2,-1.776878730E-2,1.462651759E-1,1.480208576E-1
6.112094625E0,3.189306676E-2,1.129274244E-2,9.776603043E-2,1.034547749E-1
6.122082625E0,-5.230376656E-3,5.267215257E-2,-2.976875961E-2,6.072801285E-2
6.132070625E0,1.035814952E-2,1.678366851E-2,-2.003899276E-2,2.811661468E-2
6.142058625E0,-8.709750910E-3,4.701768033E-2,-1.831996983E-1,1.893374012E-1
6.152046625E0,-2.242161665E-3,5.731702080E-2,-8.829704940E-2,1.052931009E-1
6.162034625E0,-7.658093772E-4,1.316178436E-2,-2.872093856E-2,3.160239459E-2
6.172022625E0,-3.175667589E-2,-4.350822946E-3,-8.171074569E-2,8.777278670E-2
6.182010625E0,-1.640423675E-2,2.045111183E-2,-1.662842882E-1,1.683383838E-1
6.191998625E0,5.669241940E-2,1.809590818E-2,-2.496614903E-1,2.566560969E-1
6.201986625E0,-2.483953854E-2,1.393501696E-2,-4.982704818E-2,5.739270078E-2
6.211973625E0,2.446911971E-2,-2.078932986E-3,-2.078743637E-2,3.217417120E-2
6.221961625E0,6.144359275E-2,5.030558797E-2,-2.273397446E-2,8.260024737E-2
6.231949625E0,-3.146154224E-2,5.936425891E-2,9.898751378E-3,6.791118579E-2
6.241937625E0,1.257906022E-2,6.383125529E-3,-8.724922836E-2,8.838215259E-2
6.251925625E0,1.961853684E-2,2.336129390E-3,-1.444309044E-1,1.457759604E-1
6.261913625E0,-1.753087986E-2,2.045710979E-2,3.190182388E-2,4.175585536E-2
6.271901625E0,-1.870066103E-2,3.445526641E-3,1.988053322E-1,1.997126598E-1
6.281889625E0,5.474862790E-3,-1.186018274E-2,-1.944082260E-2,2.342186245E-2
6.291877625E0,-1.431682872E-2,1.860353215E-2,-1.357483739E-1,1.377631446E-1
6.301865625E0,4.400481567E-2,1.530490424E-3,3.012485504E-3,4.413435478E-2
6.311853625E0,1.473558758E-2,2.096939212E-2,8.908349991E-2,9.269694118E-2
6.321841625E0,-6.001841387E-4,1.058402450E-2,6.213953018E-2,6.303731440E-2
6.331829625E0,-8.193215074E-3,3.160106229E-2,2.172357559E-2,3.921313106E-2
6.341817625E0,2.437100069E-3,1.943609686E-2,-1.556575584E-1,1.568852345E-1
6.351805625E0,-1.081129389E-2,8.759732042E-3,-2.482961655E-2,2.846272719E-2
6.361793625E0,-1.815557034E-3,-1.302902630E-2,-1.046008408E-2,1.680669904E-2
6.371781625E0,-7.086410241E-3,1.646225323E-2,1.269547462E-1,1.282136131E-1
6.381768625E0,-1.266024743E-2,2.989372557E-2,1.214162636E-1,1.256814455E-1
6.391756625E0,-1.153831978E-2,4.187508157E-2,-1.502687645E-1,1.564204490E-1
6.401744625E0,3.758818628E-2,1.376194509E-2,-1.075887680E-2,4.144896031E-2
6.411732625E0,2.192403002E-2,2.156580812E-2,1.506055641E-1,1.537133147E-1
6.421720625E0,1.413122417E-2,1.744772834E-2,7.471338272E-2,7.801412871E-2
6.431708625E0,-2.653441110E-2,-1.107926311E-3,4.537439346E-2,5.257507066E-2
6.441696625E0,-3.028255856E-2,-3.886021835E-3,-3.455879867E-2,4.611339376E-2
6.451684625E0,3.811520314E-2,4.198584063E-3,-2.182268590E-1,2.215702119E-1
6.461672625E0,2.722661408E-2,-6.773244449E-3,-9.862557113E-2,1.025386202E-1
6.471660625E0,2.497597281E-2,2.360851007E-3,2.217322648E-2,3.348170855E-2
6.481648625E0,-2.953742457E-2,1.440264575E-2,2.022785783E-2,3.858836466E-2
6.491636625E0,2.649369986E-2,9.282242430E-3,-2.117896593E-1,2.136420743E-1
6.501624625E0,4.452373779E-3,4.386081428E-2,-2.270579088E-1,2.312982676E-1
6.511612625E0,2.503120616E-2,1.478714929E-2,-1.067081773E-1,1.105977223E-1
6.521600625E0,-2.731580468E-4,3.152830100E-2,-1.137447166E-1,1.180337619E-1
6.531588625E0,-3.805037442E-2,-1.225055976E-2,4.043466568E-2,5.685832742E-2
6.541576625E0,-3.720848272E-2,-1.164966470E-2,7.306739151E-2,8.281925849E-2
6.551563625E0,1.745270304E-2,2.848871731E-2,-2.053536290E-1,2.080536392E-1
6.561551625E0,-8.520272572E-3,4.183445256E-2,-1.905350304E-1,1.952596073E-1
6.571539625E0,-1.628594598E-3,1.016968988E-3,1.109374684E-1,1.109540826E-1
6.581527625E0,3.888075213E-3,2.137064131E-2,1.652744740E-1,1.666957504E-1
6.591515625E0,-2.582556639E-2,8.214391474E-2,-6.659393907E-2,1.088546523E-1
6.601503625E0,-4.985757248E-2,3.106309104E-2,3.910033107E-3,5.887258715E-2
6.611491625E0,-8.856015812E-3,-1.041827763E-2,-3.336304307E-2,3.605637486E-2
6.621479625E0,5.244287205E-3,1.976836261E-2,-1.128477538E-1,1.146861205E-1
6.631467625E0,-4.123803657E-2,9.681818535E-3,2.073370045E-1,2.116198165E-1
6.641455625E0,-1.941791111E-2,-2.245793563E-2,1.214168483E-1,1.249938606E-1
6.651443625E0,1.705176906E-2,1.449919904E-2,-2.516074437E-1,2.526010596E-1
6.661431625E0,3.983886638E-2,1.399758445E-2,-1.423352623E-1,1.484668129E-1
6.671419625E0,3.592143289E-2,-1.189678151E-2,1.763531935E-1,1.803672133E-1
6.681407625E0,2.667888529E-2,-6.650442642E-4,1.956630385E-1,1.974746309E-1
6.691395625E0,1.947308279E-2,4.526597329E-2,-1.305092686E-1,1.395022526E-1
6.701383625E0,2.790257734E-2,-6.412769314E-3,-7.422630966E-2,7.955641066E-2
6.711371625E0,-1.297045479E-2,-4.728955759E-2,1.670724928E-1,1.741199380E-1
6.721359625E0,8.145344422E-3,-2.222828167E-3,-4.054634750E-2,4.141610673E-2
6.731346625E0,2.978126945E-2,2.924583580E-2,1.124594986E-2,4.322862837E-2
6.741334625E0,1.154915997E-2,-4.013862298E-3,1.359366542E-1,1.364854137E-1
6.751322625E0,-7.916714864E-3,1.841276903E-2,-7.766973495E-2,8.021403970E-2
6.761310625E0,4.375638210E-2,3.330770009E-2,-7.751946151E-2,9.504362563E-2
6.771298625E0,3.286938047E-2,5.802336445E-2,-3.066747665E-2,7.340028010E-2
6.781286625E0,3.196707972E-2,1.671731974E-2,-6.389895737E-2,7.337874160E-2
6.791274625E0,-2.926021630E-2,4.055897155E-3,2.860925674E-2,4.112298787E-2
6.801262625E0,1.927297554E-2,-5.731092462E-3,-1.529637462E-1,1.542796184E-1
6.811250625E0,3.783932534E-3,1.476963277E-2,-2.640327770E-1,2.644726215E-1
6.821238625E0,2.731206109E-2,-1.907293110E-2,-6.614370346E-2,7.405886098E-2
6.831226625E0,1.378349185E-2,5.535524797E-3,-1.652382213E-1,1.659044799E-1
6.841214625E0,-4.186571004E-3,1.893335395E-2,9.417291641E-2,9.614851769E-2
6.851202625E0,3.767311252E-2,-1.316334438E-2,-1.150790513E-2,4.153274519E-2
6.861190625E0,-2.309550141E-2,2.310041444E-2,-3.053474486E-1,3.070897193E-1
6.871178625E0,1.891867995E-2,3.864325696E-2,8.459166884E-2,9.490504832E-2
6.881166625E0,4.696343827E-2,4.967723155E-2,2.562249899E-3,6.841021118E-2
6.891154625E0,-5.185183390E-2,-1.539638119E-3,-1.225781053E-1,1.331028740E-1
6.901142625E0,-6.905602799E-2,-4.594285703E-2,2.196108949E-1,2.347518398E-1
6.911130625E0,4.840653566E-2,-1.271094120E-2,-5.071874857E-3,5.030392266E-2
6.921118625E0,-2.511138153E-2,6.249203506E-2,-2.535557359E-1,2.623477600E-1
6.931105625E0,-7.302487129E-2,9.703810690E-3,1.056966090E-1,1.288354335E-1
6.941093625E0,1.934979561E-3,4.899002840E-3,3.640599257E-1,3.640980278E-1
6.951081625E0,-3.768106565E-2,9.873384512E-2,-5.925977647E-2,1.211608682E-1
6.961069625E0,-3.062863607E-2,3.792601374E-2,-2.480178380E-1,2.527634147E-1
6.971057625E0,-1.680318930E-2,-1.719433834E-2,1.649733424E-1,1.667159145E-1
6.981045625E0,-5.019976707E-2,6.010456666E-2,2.419139296E-1,2.542733271E-1
6.991033625E0,1.110525010E-3,9.556311021E-2,-1.978721166E-1,2.197428402E-1
7.001021625E0,-8.533984407E-3,1.538506934E-2,-3.874949813E-3,1.801511822E-2
7.011009375E0,5.609699012E-2,-9.865758007E-3,1.471609694E-1,1.577991014E-1
7.020997375E0,4.544300688E-2,7.140991601E-2,-1.378469396E-1,1.617597655E-1
7.030985375E0,5.202627735E-2,3.866053366E-2,-1.360588610E-2,6.623058609E-2
7.040973375E0,9.637927873E-3,3.187584031E-2,2.577809340E-1,2.599230055E-1
7.050961375E0,5.231064846E-2,4.773294099E-2,-9.398755968E-2,1.176796455E-1
7.060949375E0,1.743783375E-2,2.949410036E-2,-2.782543749E-1,2.803559829E-1
7.070937375E0,-2.697894453E-3,-2.467290203E-2,2.411976457E-3,2.493688753E-2
7.080925375E0,-1.003424461E-3,1.697641878E-2,8.773454726E-2,8.936753570E-2
7.090913375E0,1.675794647E-2,3.021037742E-2,-1.614884019E-2,3.813503263E-2
7.100901375E0,-1.395851660E-2,6.628835353E-3,-1.294632018E-1,1.303821393E-1
7.110888375E0,-2.432536729E-2,3.266023287E-2,-1.826026976E-1,1.870886407E-1
7.120876375E0,7.016209278E-2,1.425565794E-2,-5.012817979E-2,8.740009986E-2
7.130864375E0,1.629540887E-2,3.990651593E-2,-6.120572984E-2,7.486128325E-2
7.140852375E0,-1.160357334E-2,1.690853283E-2,-1.689728379E-2,2.657178196E-2
7.150840375E0,4.088436567E-3,1.038143446E-4,5.869552016E-2,5.883782948E-2
7.160828375E0,-3.521649623E-2,1.919058690E-2,-2.653811449E-1,2.683945459E-1
7.170816375E0,-4.278740025E-3,-6.366886944E-3,-1.348531651E-1,1.350711702E-1
7.180804375E0,2.488199938E-2,-3.234262856E-2,9.237431288E-2,1.009860049E-1
7.190792375E0,-2.208472567E-2,3.368204294E-2,6.303298473E-3,4.076698047E-2
7.200780375E0,-2.456509399E-2,5.450726009E-2,-6.749265611E-2,9.016509233E-2
7.210768375E0,1.802229494E-2,-5.753108599E-3,1.364740133E-3,1.896744287E-2
7.220756375E0,2.209906048E-2,-9.359770571E-4,-1.252725023E-1,1.272102369E-1
7.230744375E0,-3.598340424E-2,5.683684562E-2,8.249602675E-2,1.064463566E-1
7.240732375E0,2.895121379E-2,4.028631086E-2,7.471162856E-2,8.968270214E-2
7.250720375E0,-3.347092191E-2,-2.950935565E-2,-2.423203111E-2,5.077692405E-2
7.260708375E0,-5.529902791E-2,-2.969623815E-2,-1.061094224E-2,6.365878685E-2
7.270696375E0,7.329870828E-2,-1.676073532E-3,-8.470744371E-2,1.120306247E-1
7.280684375E0,3.420619329E-2,-3.055215860E-3,1.910197645E-1,1.940823239E-1
7.290672375E0,-4.678527178E-2,1.991958622E-2,8.518925428E-2,9.921119199E-2
7.300660375E0,4.450957200E-2,4.857395332E-2,-6.988884509E-2,9.604676782E-2
7.310647375E0,2.179505324E-2,6.196776822E-2,9.027867079E-2,1.116479603E-1
7.320635375E0,-9.540254247E-3,1.535970133E-2,2.710944593E-2,3.258617705E-2
7.330623375E0,2.301431647E-2,3.221478924E-3,1.393625379E-2,2.709715591E-2
7.340611375E0,-5.283059841E-3,4.367802941E-2,2.606104016E-2,5.113568997E-2
7.350599375E0,-2.684857560E-2,7.059132409E-2,-7.318316638E-2,1.051653788E-1
7.360587375E0,1.939129486E-2,3.094127710E-2,5.749567151E-2,6.811121190E-2
7.370575375E0,5.100824970E-2,3.124345024E-2,-1.454822338E-1,1.572993168E-1
7.380563375E0,3.630759581E-2,6.042462406E-2,-2.828964794E-1,2.915472427E-1
7.390551375E0,6.969294052E-2,1.483148991E-2,3.638956189E-2,8.000799501E-2
7.400539375E0,1.492061084E-2,5.727450058E-2,1.820372719E-1,1.914172442E-1
7.410527375E0,2.805892183E-2,9.935294649E-2,-2.779567516E-1,2.965101462E-1
7.420515375E0,6.298103930E-3,2.064753716E-2,-2.260147655E-1,2.270433023E-1
7.430503375E0,1.909650040E-2,-4.138241711E-2,1.282984364E-1,1.361531107E-1
7.440491375E0,-3.857005713E-2,4.341319165E-2,-1.613498229E-1,1.714821269E-1
7.450479375E0,4.326087054E-3,1.038249084E-2,3.549142957E-2,3.723107194E-2
7.460467375E0,-3.249863045E-2,-4.615824013E-3,7.066886365E-2,7.792018418E-2
7.470455375E0,-4.106964132E-2,4.294867605E-2,-2.863393199E-1,2.924406100E-1
7.480443375E0,3.939998260E-2,3.542499515E-2,-1.095563561E-1,1.216958671E-1
7.490430375E0,3.735452606E-2,-2.683034873E-3,1.203655189E-1,1.260571991E-1
7.500418375E0,-5.704912696E-2,7.946874277E-3,2.710184455E-3,5.766368699E-2
7.510406375E0,5.061392124E-3,2.034949819E-2,-1.207830101E-1,1.225897847E-1
7.520394375E0,-1.342796058E-2,-1.427837643E-2,-1.164420372E-1,1.180801854E-1
7.530382375E0,-2.030864762E-2,-4.682691492E-2,7.306329846E-2,8.912601591E-2
7.540370375E0,2.830703564E-2,-9.031345487E-3,-2.603063464E-2,3.950249875E-2
7.550358375E0,9.267225821E-3,1.674893810E-3,1.243936658E-2,1.560206988E-2
7.560346375E0,-3.603360807E-2,-3.599938815E-3,3.758707166E-2,5.219356690E-2
7.570334375E0,3.523412010E-2,-2.300177693E-2,1.348718762E-2,4.418630095E-2
7.580322375E0,3.565316903E-5,3.953145359E-2,5.403411984E-3,3.989904704E-2
7.590310375E0,1.048040887E-2,4.131007152E-2,5.959072888E-2,7.326265043E-2
7.600298375E0,-8.044638124E-4,2.480346853E-2,1.512002259E-1,1.532232604E-1
7.610286375E0,-2.020313050E-2,-2.188646623E-2,3.968212903E-2,4.961708627E-2
7.620274375E0,-6.276264694E-2,1.805893482E-2,1.528286755E-2,6.707340023E-2
7.630262375E0,6.766000525E-2,1.749803724E-2,-4.204791248E-2,8.156031242E-2
7.640250375E0,1.394156996E-2,-1.095906399E-2,1.266512758E-1,1.278867237E-1
7.650238375E0,-2.085895512E-2,1.213468896E-2,5.914107800E-2,6.387498565E-2
7.660226375E0,6.100357150E-2,3.982050704E-2,-6.090869129E-2,9.495776530E-2
7.670213375E0,2.902007846E-2,4.477312610E-2,-8.485888660E-2,1.002388568E-1
7.680201375E0,-3.158498245E-2,3.533841067E-2,-1.109053087E-1,1.206084652E-1
7.690189375E0,1.960376806E-2,8.151139675E-3,-4.159943104E-2,4.670397695E-2
7.700177375E0,1.183369211E-2,3.461976503E-2,-8.590729237E-2,9.337358985E-2
7.710165375E0,-5.242820947E-2,4.739436893E-2,-1.770677233E-1,1.906513099E-1
7.720153375E0,2.838523130E-3,1.234508137E-2,-1.332083434E-1,1.338092710E-1
7.730141375E0,3.501392447E-2,7.111436210E-4,-1.405430907E-1,1.448407435E-1
7.740129375E0,-1.260006108E-2,4.440370998E-2,-1.144978380E-1,1.234512289E-1
7.750117375E0,7.079320378E-2,3.516730196E-3,-9.416356087E-3,7.150323667E-2
7.760105375E0,2.249051330E-2,1.624986797E-2,7.949932873E-2,8.420228421E-2
7.770093375E0,2.394937533E-2,6.395252792E-2,-1.740739489E-1,1.869899411E-1
7.780081375E0,7.661108742E-3,1.781755559E-2,-1.456336766E-1,1.469194529E-1
7.790069375E0,-4.182977879E-3,-2.870543887E-2,7.321123302E-2,7.874886771E-2
7.800057375E0,-1.131088936E-2,3.008201505E-2,1.443133754E-1,1.478486190E-1
7.810045375E0,-5.026929526E-4,4.559560094E-2,-1.338082677E-1,1.413642955E-1
7.820033375E0,-4.136124379E-2,2.028730300E-3,-2.043122399E-1,2.084666870E-1
7.830021375E0,-8.934030459E-3,4.009403796E-3,1.594319361E-1,1.597323839E-1
7.840009375E0,-6.820285984E-3,8.081741905E-2,3.128260374E-4,8.110529812E-2
7.849997375E0,1.502485459E-2,6.318325818E-2,-9.234449208E-2,1.128954188E-1
7.859984375E0,-3.778077895E-2,2.452444442E-3,1.122805738E-1,1.184918943E-1
7.869972375E0,-3.920421964E-2,1.626855508E-2,3.519088268E-2,5.513651192E-2
7.879960375E0,7.203387102E-3,1.198367548E-2,-1.085102892E-1,1.094074043E-1
7.889948375E0,-1.130753521E-2,-2.813118063E-2,1.444636488E-1,1.476108719E-1
7.899936375E0,1.014249119E-2,-2.099294772E-2,7.351119518E-2,7.711984050E-2
7.909924375E0,3.309003520E-2,7.986711860E-3,-9.266082644E-3,3.527886454E-2
7.919912375E0,-2.880044471E-2,1.931300155E-2,7.755337536E-2,8.495283206E-2
7.929900375E0,4.669770973E-2,-2.924976897E-2,6.602792859E-2,8.599949089E-2
7.939888375E0,1.590560972E-2,2.022832835E-2,8.967874646E-2,9.329764871E-2
7.949876375E0,2.122504792E-2,6.905821613E-2,-6.689624012E-2,9.846139759E-2
7.959864375E0,2.043521928E-4,2.628241438E-2,1.356331837E-1,1.381563158E-1
7.969852375E0,-4.147351490E-2,-2.800570075E-2,1.697622120E-1,1.769846896E-1
7.979840375E0,-5.497448003E-2,4.153324787E-2,-2.402351940E-1,2.499202924E-1
7.989828375E0,2.885089293E-2,2.015344287E-2,-2.019218981E-2,4.057412737E-2
7.999816375E0,1.699358469E-2,-5.008855120E-3,-3.950203478E-2,4.329297059E-2
8.009803875E0,-1.916127773E-2,3.882969635E-2,-2.872444689E-2,5.196146391E-2
8.019791875E0,-2.354492731E-3,6.105134508E-2,-1.091090441E-2,6.206334028E-2
8.029779875E0,5.462382525E-2,8.208484872E-2,-3.357354283E-1,3.499142216E-1
8.039766875E0,-2.582799664E-3,2.761475500E-2,-2.093987328E-1,2.112275428E-1
8.049754875E0,1.601707798E-2,1.036130839E-2,-2.034187853E-2,2.788719278E-2
8.059742875E0,6.000199827E-2,2.515523794E-2,3.459388196E-2,7.368692192E-2
8.069730875E0,-7.008651295E-2,4.999322331E-2,-1.240779161E-2,8.697927895E-2
8.079718875E0,-3.226624246E-2,1.722351046E-2,-2.272111058E-1,2.301361474E-1
8.089706875E0,5.991416213E-2,-9.792039692E-3,-1.203339440E-1,1.347807439E-1
8.099694875E0,1.463512511E-2,1.446532745E-2,1.637758327E-1,1.650634907E-1
8.109682875E0,5.224069201E-2,-1.369561460E-2,4.746769667E-2,7.190161325E-2
8.119670875E0,2.161022697E-3,2.285581581E-2,-6.569931507E-3,2.387932863E-2
8.129658875E0,2.733785736E-2,2.158621171E-2,-2.228958607E-3,3.490402895E-2
8.139646875E0,8.295138781E-3,-1.066883653E-2,-3.755608141E-2,3.991356476E-2
8.149634875E0,4.415256522E-3,-2.655778169E-2,3.534232557E-2,4.442848450E-2
8.159622875E0,-3.010304447E-2,1.786402611E-2,1.729068446E-1,1.764145505E-1
8.169610875E0,-3.235770113E-2,9.349857713E-4,-2.722697496E-2,4.229897383E-2
8.179598875E0,-8.897258097E-3,-2.595705794E-3,-1.269196630E-1,1.272576117E-1
8.189586875E0,-2.395531163E-2,1.876652672E-2,1.218629909E-1,1.256050478E-1
8.199574875E0,2.541034556E-2,6.284361260E-2,-3.246608019E-2,7.516017343E-2
8.209562875E0,2.749155690E-2,2.560240375E-2,1.498524427E-2,4.044534986E-2
8.219549875E0,-4.774964210E-2,-6.452331666E-3,1.537472731E-1,1.611207153E-1
8.229537875E0,2.676470689E-2,2.873580328E-2,-1.177886510E-1,1.241622416E-1
8.239525875E0,-6.891007600E-3,2.139108372E-2,2.860457897E-3,2.265494798E-2
8.249513875E0,3.026638164E-3,-2.870733237E-2,5.689808607E-2,6.380175287E-2
8.259501875E0,1.931735727E-2,-8.990444670E-3,2.561314344E-2,3.331698522E-2
8.269489875E0,-1.173453841E-2,1.250672490E-2,1.163250929E-1,1.175825021E-1
8.279477875E0,-2.120807958E-2,1.188625538E-2,-1.143452257E-1,1.169012247E-1
8.289465875E0,-2.428219839E-2,-2.968859337E-2,1.303987563E-2,4.051019737E-2
8.299453875E0,2.680371878E-2,-2.241051151E-2,2.785905898E-2,4.468554054E-2
8.309441875E0,-3.826292870E-3,6.243321572E-2,-1.408407140E-1,1.541059819E-1
8.319429875E0,-2.097794139E-2,4.214644263E-2,5.555147231E-2,7.281732436E-2
8.329417875E0,-2.127955494E-2,1.478127580E-2,-9.548386216E-2,9.893671465E-2
8.339405875E0,-3.805942618E-2,2.815656577E-2,-2.206242174E-1,2.256465320E-1
8.349393875E0,9.777783678E-3,-1.784206479E-2,-5.521759629E-2,5.884664196E-2
8.359381875E0,4.716672495E-2,-1.872270458E-2,-1.864951891E-1,1.932762147E-1
8.369369875E0,-4.151508038E-2,4.748232384E-2,1.312945497E-1,1.456582705E-1
8.379357875E0,1.694501968E-2,3.927121595E-2,-3.261459947E-2,5.378730512E-2
8.389345875E0,6.650806722E-2,2.870844014E-2,-2.613395494E-1,2.711933953E-1
8.399332875E0,9.242855951E-3,-8.816938824E-3,1.001592958E-1,1.009705568E-1
8.409320875E0,-3.057072808E-2,4.077302760E-2,2.366777480E-2,5.618872448E-2
8.419308875E0,5.628316455E-2,5.462727419E-2,-2.333477587E-1,2.461769895E-1
8.429296875E0,-3.022802642E-2,1.258466760E-2,1.631782472E-1,1.664309100E-1
8.439284875E0,-5.072527187E-2,2.824503003E-2,1.092903078E-1,1.237546213E-1
8.449272875E0,6.266031610E-2,5.450414462E-2,-3.373814195E-1,3.474524993E-1
8.459260875E0,2.280080174E-2,3.592941114E-2,-5.551755846E-2,6.994997099E-2
8.469248875E0,-4.180590170E-3,-3.349542083E-3,2.736485231E-1,2.737009517E-1
8.479236875E0,-4.016843007E-3,5.847097795E-2,1.814391017E-3,5.863686813E-2
8.489224875E0,5.662753814E-2,5.553453365E-2,-2.206230479E-1,2.344467782E-1
8.499212875E0,-2.262670032E-3,-5.165208753E-3,-3.755432725E-2,3.797534137E-2
8.509200875E0,4.662453845E-3,-2.693480604E-2,1.350367677E-1,1.377757268E-1
8.519188875E0,-1.546181747E-2,5.246957396E-2,8.010159194E-2,9.699685058E-2
8.529176875E0,-4.237287149E-2,5.244783419E-2,-5.761144638E-2,8.868660724E-2
8.539164875E0,-6.774561785E-3,-1.237621551E-2,-5.147420883E-2,5.337283553E-2
8.549152875E0,-1.217921802E-2,2.826444918E-2,2.845898330E-2,4.191808881E-2
8.559140875E0,1.316905798E-2,5.769941957E-2,6.588174820E-2,8.856100639E-2
8.569128875E0,4.270608512E-2,2.719285555E-2,1.513545924E-1,1.595978501E-1
8.579115875E0,-5.733834486E-3,-1.783504699E-3,-3.321160018E-2,3.375008346E-2
8.589103875E0,-2.396392028E-2,2.941996177E-2,-5.297051132E-2,6.515887273E-2
8.599091875E0,2.247480804E-2,2.407009978E-2,-3.635506332E-2,4.905280144E-2
8.609079875E0,-4.202497244E-3,-1.217145104E-2,-8.380638778E-2,8.478983333E-2
8.619067875E0,-1.263923058E-2,-3.084588297E-2,1.350391066E-1,1.390926992E-1
8.629055875E0,-1.697496611E-2,-4.869924362E-3,3.878984392E-2,4.262062445E-2
8.639043875E0,-1.572345525E-2,3.867172102E-2,-4.221023118E-1,4.241616328E-1
8.649031875E0,-4.420642927E-3,-2.219930597E-2,-2.392973006E-2,3.293908393E-2
8.659019875E0,4.908109878E-2,-5.241692618E-2,7.187105119E-2,1.015969311E-1
8.669007875E0,1.358215463E-2,5.069222140E-2,-2.453193480E-1,2.508700036E-1
8.678995875E0,2.232595301E-2,6.451221609E-3,-1.330066144E-2,2.677637079E-2
8.688983875E0,-1.655967789E-2,-2.459631264E-3,-1.724203563E-1,1.732312096E-1
8.698971875E0,-1.884926139E-2,2.660540224E-3,-1.936761546E-1,1.946094191E-1
8.708959875E0,3.295676665E-2,-4.325852823E-2,8.743926287E-2,1.029712262E-1
8.718947875E0,5.350646345E-2,-3.226596837E-2,-7.587171614E-2,9.828810536E-2
8.728935875E0,-4.117609719E-2,6.297629415E-3,1.354893422E-1,1.417479911E-1
8.738923875E0,-4.613898543E-3,3.246995397E-2,-3.051603377E-2,4.479748082E-2
8.748910875E0,7.127085506E-3,3.272025134E-2,-2.065505540E-1,2.092475605E-1
8.758898875E0,3.913464691E-2,-3.311528330E-3,6.857731462E-2,7.902743124E-2
8.768886875E0,-8.078322426E-3,3.981021503E-2,7.830708146E-2,8.821627696E-2
8.778874875E0,4.107281846E-3,2.136372972E-2,9.671937883E-2,9.913585100E-2
8.788862875E0,-3.463703259E-2,3.619527445E-2,-3.261109114E-2,5.977712927E-2
8.798850875E0,-4.317468007E-2,5.908480768E-2,-1.876886058E-1,2.014499447E-1
8.808838875E0,1.932963871E-2,1.879429642E-2,-3.216202497E-2,4.196732492E-2
8.818826875E0,2.181877329E-2,3.437092946E-2,3.130599260E-2,5.135644879E-2
8.828814875E0,-2.682803040E-3,3.602777456E-2,1.155813271E-1,1.210959997E-1
8.838802875E0,4.979625894E-2,2.561066980E-2,-9.293506086E-2,1.085011491E-1
8.848790875E0,2.853225622E-2,7.103732047E-2,-2.616342491E-1,2.726038717E-1
8.858778875E0,2.598415841E-2,1.576745098E-3,-1.913910627E-2,3.231049369E-2
8.868766875E0,2.436685968E-2,-5.026264291E-3,3.834194720E-2,4.570680582E-2
8.878754875E0,6.501086824E-3,2.927175085E-2,-4.338750958E-2,5.274064387E-2
8.888742875E0,-2.486793180E-2,4.750456153E-3,-2.263065416E-1,2.277183164E-1
8.898730875E0,-1.949154948E-2,-2.382362137E-2,-2.625312120E-1,2.643295721E-1
8.908718875E0,-3.908727191E-3,1.780778206E-2,-7.527003765E-2,7.744658687E-2
8.918706875E0,7.058094072E-3,8.647406115E-2,-3.258489561E-1,3.372019012E-1
8.928693875E0,2.611014764E-3,1.353302660E-2,-2.968093443E-1,2.971291757E-1
8.938681875E0,-1.771190143E-2,-1.821191603E-2,-1.138891429E-1,1.166881408E-1
8.948669875E0,1.011783010E-2,6.167056065E-3,-2.791449058E-1,2.793962804E-1
8.958657875E0,-1.142379887E-2,3.823129778E-2,-4.475453013E-1,4.493205226E-1
8.968645875E0,1.268102332E-2,-4.642705673E-2,-3.108794993E-1,3.145828079E-1
8.978633875E0,1.579197046E-3,-3.206516448E-2,-1.243667686E-1,1.284436132E-1
8.988621875E0,4.725180193E-2,4.583598089E-3,-3.545886058E-1,3.577524584E-1
8.998609875E0,9.135376247E-3,9.894617214E-3,-4.699986094E-1,4.701915050E-1
9.008602125E0,8.491354550E-3,-4.923189299E-2,-1.508616722E-1,1.589186160E-1
9.018590125E0,5.080575331E-2,-8.075135008E-3,-3.710537803E-1,3.746029101E-1
9.028578125E0,4.162799103E-2,1.584506363E-2,-4.810749900E-1,4.831325923E-1
9.038566125E0,-2.353070555E-2,-4.477988695E-2,-2.788449436E-1,2.833962508E-1
9.048554125E0,5.249307702E-2,-2.978815363E-2,-3.532402378E-1,3.583594883E-1
9.058542125E0,-4.265244605E-2,1.776058864E-2,-3.662625718E-1,3.691651950E-1
9.068530125E0,-4.234771704E-3,-3.771386944E-2,-5.166997361E-1,5.180915812E-1
9.078518125E0,1.036729379E-2,-4.763816128E-2,-4.717931199E-1,4.743054113E-1
9.088506125E0,-4.464537586E-4,-1.321082217E-2,-3.027939695E-1,3.030823537E-1
9.098494125E0,-7.195557087E-2,5.920832554E-2,-5.701386094E-1,5.777034394E-1
9.108481125E0,1.244629873E-2,4.991921035E-3,-4.729906297E-1,4.731806900E-1
9.118469125E0,-2.201282547E-2,-4.404620756E-4,-2.273502696E-1,2.284138865E-1
9.128457125E0,-1.319486453E-2,7.222733849E-2,-6.304625791E-1,6.347235277E-1
9.138445125E0,-2.585709568E-2,3.711537494E-2,-5.559170115E-1,5.577543044E-1
9.148433125E0,-1.882981597E-3,-2.774285699E-2,-3.939532310E-1,3.949333614E-1
9.158421125E0,-4.173309473E-2,6.216488334E-2,-5.771728098E-1,5.820090861E-1
9.168409125E0,3.254845284E-2,5.393172962E-2,-4.881080210E-1,4.921559442E-1
9.178397125E0,8.961092790E-2,1.804302286E-3,-5.499294627E-1,5.571855955E-1
9.188385125E0,-4.988320201E-3,5.992166301E-2,-5.671436656E-1,5.703222128E-1
9.198373125E0,3.119141915E-2,4.560269069E-2,-4.879583323E-1,4.910762101E-1
9.208361125E0,6.451596653E-2,8.848317359E-2,-7.048578733E-1,7.133135380E-1
9.218349125E0,-1.559300296E-2,8.751268197E-2,-5.192438596E-1,5.267976813E-1
9.228337125E0,7.912804539E-3,-4.116072084E-3,-4.487404722E-1,4.488291055E-1
9.238325125E0,4.383720615E-2,1.425650533E-2,-8.320938706E-1,8.333697608E-1
9.248313125E0,6.501024583E-4,5.920390815E-2,-7.180310655E-1,7.204679981E-1
9.258301125E0,-6.987418137E-2,3.750148761E-2,-6.005248350E-1,6.057382605E-1
9.268288125E0,1.630222225E-2,-2.073042145E-2,-8.750545335E-1,8.754518544E-1
9.278276125E0,4.216995483E-2,6.460918394E-2,-7.650327390E-1,7.689133524E-1
9.288264125E0,1.972837085E-2,6.724235874E-2,-6.590531248E-1,6.627682587E-1
9.298252125E0,-3.178471625E-3,3.427288581E-2,-8.648751158E-1,8.655597606E-1
9.308240125E0,6.194337894E-2,2.182740478E-3,-9.070861655E-1,9.092013299E-1
9.318228125E0,1.506104338E-2,3.056588585E-2,-1.037315937E0,1.037875456E0
9.328216125E0,5.097156299E-2,-3.408841073E-2,-9.058898252E-1,9.079628271E-1
9.338204125E0,4.774860970E-2,-7.507778303E-2,-6.810561973E-1,6.868436118E-1
9.348192125E0,3.342387467E-2,-1.864429022E-2,-1.057223952E0,1.057916467E0
9.358180125E0,-1.981410337E-2,-1.513282252E-2,-1.070096598E0,1.070387000E0
9.368168125E0,-2.219238981E-2,-8.622749138E-2,-8.605318040E-1,8.651258105E-1
9.378156125E0,-1.130767910E-2,-1.066007941E-2,-1.195535746E0,1.195636742E0
9.388144125E0,-5.791445549E-3,3.103529164E-2,-1.028334029E0,1.028818549E0
9.398132125E0,-1.792218649E-2,-5.835733183E-2,-6.577041721E-1,6.605312718E-1
9.408120125E0,-1.804152908E-2,-8.794943243E-3,-9.960006809E-1,9.962028931E-1
9.418108125E0,-3.803567187E-2,1.506284551E-2,-1.054379867E0,1.055173211E0
9.428096125E0,-8.523724713E-2,8.509665357E-3,-8.919676048E-1,8.960714317E-1
9.438084125E0,-5.939244203E-3,-1.059535576E-2,-1.029381850E0,1.029453510E0
9.448071125E0,-4.021318411E-2,-2.219991353E-3,-9.322332859E-1,9.331028496E-1
9.458059125E0,-3.045251382E-2,1.435386376E-2,-7.895793504E-1,7.902967414E-1
9.468047125E0,2.388861682E-2,2.529445420E-2,-1.011567723E0,1.012165863E0
9.478035125E0,3.885622809E-2,2.248119658E-3,-9.787853086E-1,9.795588501E-1
9.488023125E0,-6.812394527E-3,1.735297375E-2,-8.415201670E-1,8.417266337E-1
9.498011125E0,-2.727635881E-3,5.954968873E-2,-1.084914612E0,1.086551112E0
9.507999125E0,9.387138281E-3,4.286033284E-2,-8.981030881E-1,8.991742231E-1
9.517987125E0,5.559208761E-2,1.182013274E-2,-6.960227305E-1,6.983393423E-1
9.527975125E0,5.660545577E-2,4.186617371E-2,-1.053778773E0,1.056128144E0
9.537963125E0,2.712660842E-2,1.494175561E-2,-9.217533213E-1,9.222734379E-1
9.547951125E0,8.588889419E-3,-1.584855140E-2,-7.117394614E-1,7.119677005E-1
9.557939125E0,2.079847527E-2,9.662188108E-3,-1.022493246E0,1.022750396E0
9.567927125E0,4.815334551E-3,5.991734155E-2,-1.091050680E0,1.092705295E0
9.577915125E0,2.190606811E-2,1.191750715E-2,-8.451115268E-1,8.454793880E-1
9.587903125E0,5.563645793E-2,6.491567397E-3,-9.289372104E-1,9.306244661E-1
9.597891125E0,3.451680607E-2,6.152288647E-2,-1.119940603E0,1.122160162E0
9.607879125E0,-6.206728509E-2,5.455845064E-2,-8.534940952E-1,8.574853602E-1
9.617867125E0,-2.401433653E-2,-2.041723224E-2,-7.966117966E-1,7.972351637E-1
9.627854125E0,1.551466625E-2,9.479830354E-3,-1.021593944E0,1.021755723E0
9.637842125E0,2.198090561E-3,6.217560933E-2,-1.039406902E0,1.041267182E0
9.647830125E0,-1.721136607E-2,2.805771128E-2,-8.898678696E-1,8.904764408E-1
9.657818125E0,1.873681327E-2,-8.985991878E-3,-8.949567014E-1,8.951979187E-1
9.667806125E0,2.342609750E-2,2.023410247E-2,-1.025485266E0,1.025952353E0
9.677794125E0,-2.199079106E-2,-2.224993464E-3,-8.430147153E-1,8.433044265E-1
9.687782125E0,3.080895072E-3,-3.667878436E-2,-7.469145566E-1,7.478209545E-1
9.697770125E0,-8.621776581E-4,-3.563101357E-3,-9.175602829E-1,9.175676062E-1
9.707758125E0,-2.002466023E-2,-9.360987979E-3,-9.539352268E-1,9.541912974E-1
9.717746125E0,6.853016687E-4,-4.339803457E-2,-7.599380600E-1,7.611765328E-1
9.727734125E0,1.843931562E-2,-1.452700072E-2,-6.826980954E-1,6.831015529E-1
9.737722125E0,1.936973325E-2,3.775764590E-2,-9.666581833E-1,9.675892051E-1
9.747710125E0,4.657655359E-2,-1.424747184E-3,-8.226582187E-1,8.239769112E-1
9.757698125E0,4.462765377E-2,-2.057606180E-2,-6.440795749E-1,6.459516241E-1
9.767686125E0,-3.770964163E-3,2.961224609E-2,-8.416681015E-1,8.421973038E-1
9.777674125E0,2.452413379E-2,1.713803148E-2,-9.536358494E-1,9.541050668E-1
9.787662125E0,8.340172620E-3,-7.714327541E-3,-7.909242100E-1,7.910057997E-1
9.797649125E0,5.421187748E-3,-3.169554964E-2,-7.549983323E-1,7.556827898E-1
9.807637125E0,2.126117961E-2,2.458704846E-2,-1.021595113E0,1.022112096E0
9.817625125E0,-2.035724118E-3,1.450911190E-2,-1.044796865E0,1.044899587E0
9.827613125E0,-3.530216707E-2,-2.788902139E-2,-7.190736240E-1,7.204796439E-1
9.837601125E0,-9.061140591E-3,-1.746028843E-3,-8.648704380E-1,8.649196653E-1
9.847589125E0,5.269117886E-3,3.823784392E-2,-1.022193868E0,1.022922382E0
9.857577125E0,8.226400878E-3,2.985386857E-2,-8.037974399E-1,8.043937168E-1
9.867565125E0,-5.306520652E-3,1.158016392E-2,-7.172773594E-1,7.173904583E-1
9.877553125E0,3.185180506E-2,-1.645568425E-2,-9.245962375E-1,9.252910512E-1
9.887541125E0,-8.678873728E-3,1.769712351E-2,-9.030404770E-1,9.032555642E-1
9.897529125E0,2.280651648E-2,2.665645117E-3,-8.460096592E-1,8.463212075E-1
9.907517125E0,1.552134715E-2,-5.105797844E-3,-7.829912925E-1,7.831617620E-1
9.917505125E0,4.583879943E-2,-9.241876085E-3,-9.084304404E-1,9.096331529E-1
9.927493125E0,-2.743584619E-2,3.367956016E-2,-8.810374045E-1,8.821076729E-1
9.937481125E0,-2.091717146E-2,1.810395039E-2,-7.984092307E-1,7.988883406E-1
9.947469125E0,-1.452488225E-2,2.104421364E-2,-7.978104758E-1,7.982201366E-1
9.957457125E0,-6.788620228E-3,2.428375841E-2,-8.528959250E-1,8.532685657E-1
9.967445125E0,-2.814189976E-2,1.599195208E-2,-8.461599326E-1,8.467788026E-1
9.977432125E0,-2.645784912E-2,-1.397395691E-2,-8.042465061E-1,8.048029149E-1
9.987420125E0,4.776798317E-4,4.091125487E-3,-9.477979892E-1,9.478069392E-1
9.997408125E0,9.074146078E-3,2.642587901E-2,-8.502009434E-1,8.506599269E-1
1.000739604E1,2.092570474E-2,-2.921200875E-2,-8.225085300E-1,8.232930879E-1
1.001738404E1,2.450809278E-2,-2.487391377E-2,-9.424091953E-1,9.430559101E-1
1.002737204E1,4.851746831E-2,5.402868376E-3,-8.984007114E-1,8.997260550E-1
1.003736004E1,1.812812611E-2,3.037918608E-2,-8.033483738E-1,8.041269387E-1
1.004734804E1,1.086786113E-2,1.260289676E-3,-7.541001999E-1,7.541795610E-1
1.005733604E1,2.654025375E-2,2.748090629E-2,-8.862759250E-1,8.870989802E-1
1.006732404E1,3.060638239E-3,4.051708858E-2,-9.055851853E-1,9.064962933E-1
1.007731204E1,-1.754102569E-2,1.796807343E-2,-9.403129685E-1,9.406481903E-1
1.008730004E1,-8.202145211E-3,-8.130393480E-4,-9.048361570E-1,9.048736968E-1
1.009728804E1,4.664292863E-2,6.140960581E-3,-8.305905515E-1,8.319218343E-1
1.010727604E1,3.036957472E-2,3.239838953E-2,-1.019048651E0,1.020015745E0
1.011726404E1,-5.299684206E-2,-9.683751999E-3,-9.295342112E-1,9.310941360E-1
1.012725204E1,-1.044283936E-2,-4.719228367E-3,-9.293839377E-1,9.294545861E-1
1.013724004E1,3.265911140E-2,3.764603946E-2,-1.049134914E0,1.050318004E0
1.014722804E1,-3.922705119E-4,-5.915303738E-4,-7.916703147E-1,7.916706328E-1
1.015721504E1,1.338687932E-2,-2.158564297E-2,-8.686097324E-1,8.689810215E-1
1.016720304E1,8.586535687E-3,3.301404881E-2,-8.766923386E-1,8.773557503E-1
1.017719104E1,-3.576348955E-3,4.705573748E-2,-9.829713303E-1,9.841034848E-1
1.018717904E1,-2.521234879E-3,-1.432303797E-2,-9.976414096E-1,9.977474070E-1
1.019716704E1,5.936129875E-3,-3.007357770E-2,-7.531985593E-1,7.538220794E-1
1.020715504E1,3.644742192E-2,2.423229377E-2,-9.210001999E-1,9.220395799E-1
1.021714304E1,-1.287926792E-2,3.062082455E-2,-9.792291123E-1,9.797924090E-1
1.022713104E1,2.811978769E-2,-3.602697514E-2,-7.599345517E-1,7.613075517E-1
1.023711904E1,2.811441328E-2,1.006763313E-2,-9.233952194E-1,9.238779729E-1
1.024710704E1,9.778424359E-3,3.331997467E-2,-8.458564621E-1,8.465689534E-1
1.025709504E1,-9.729474485E-3,8.923787554E-3,-7.651736569E-1,7.652875420E-1
1.026708304E1,2.545955353E-3,-2.667441537E-2,-9.064803940E-1,9.068763483E-1
1.027707104E1,-1.936498467E-2,3.747970901E-2,-8.377732712E-1,8.388347782E-1
1.028705904E1,-8.244853297E-3,1.272002151E-2,-8.118771225E-1,8.120186196E-1
1.029704704E1,-1.342083886E-3,-1.373611456E-3,-9.829713303E-1,9.829732062E-1
1.030703504E1,6.498283701E-3,2.587998204E-3,-8.992947507E-1,8.993219524E-1
1.031702304E1,-2.259359560E-2,1.932225432E-2,-8.138219064E-1,8.143647312E-1
1.032701104E1,2.764457580E-2,1.193723922E-2,-1.006023393E0,1.006473938E0
1.033699904E1,-5.064154134E-3,-8.775542364E-3,-9.142642075E-1,9.143203470E-1
1.034698604E1,-2.086806170E-3,2.373618037E-2,-8.759433103E-1,8.762673358E-1
1.035697404E1,-3.590809964E-3,4.782973068E-2,-9.492913681E-1,9.505023296E-1
1.036696204E1,1.231943242E-2,-1.562254967E-2,-8.350788742E-1,8.353158437E-1
1.037695004E1,-1.177774042E-2,-1.027867422E-2,-7.319427609E-1,7.321096718E-1
1.038693804E1,3.369281918E-2,3.632973300E-3,-9.259399277E-1,9.265598493E-1
1.039692604E1,1.506832727E-2,-3.602926377E-3,-9.681527317E-1,9.682766895E-1
1.040691404E1,9.282958485E-3,-4.089260316E-2,-7.385302341E-1,7.397197341E-1
1.041690204E1,7.070980787E-3,1.837376970E-2,-8.096323764E-1,8.098717054E-1
1.042689004E1,1.680024057E-2,5.286622074E-2,-1.004377987E0,1.005908657E0
1.043687804E1,2.317456444E-2,-4.379228766E-3,-8.747475547E-1,8.750654390E-1
1.044686604E1,2.834249123E-2,2.128614904E-4,-7.681686008E-1,7.686913174E-1
1.045685404E1,-5.589342022E-3,6.266491621E-2,-9.338740146E-1,9.359908160E-1
1.046684204E1,-4.195065455E-3,3.247782030E-2,-9.925519931E-1,9.930920735E-1
1.047683004E1,-4.246523237E-3,-3.806245257E-2,-7.508041245E-1,7.517802981E-1
1.048681804E1,-1.056853965E-3,1.391308876E-2,-8.325335813E-1,8.326504998E-1
1.049680604E1,2.950757865E-2,4.259361302E-2,-1.089699388E0,1.090930644E0
1.050679404E1,-1.482015865E-2,-1.979184969E-2,-8.838773972E-1,8.842231662E-1
1.051678204E1,4.381442028E-3,-4.116295466E-2,-7.394277817E-1,7.405855995E-1
1.052677004E1,2.913490773E-2,2.843032966E-2,-8.707047898E-1,8.716558710E-1
1.053675704E1,1.662510961E-2,2.767748237E-2,-9.028878647E-1,9.034649598E-1
1.054674504E1,3.144863269E-3,-2.639738982E-2,-8.374744785E-1,8.378963029E-1
1.055673304E1,1.636201231E-2,-1.037045038E-2,-7.987045151E-1,7.989393995E-1
1.056672104E1,2.973944587E-2,2.686779832E-2,-8.626221836E-1,8.635527458E-1
1.057670904E1,-1.242104492E-2,7.929920778E-3,-8.690587986E-1,8.691837328E-1
1.058669704E1,-3.319340529E-2,-2.596066448E-2,-7.805921799E-1,7.817287954E-1
1.059668504E1,6.320775595E-3,-1.110708763E-2,-8.927096164E-1,8.928010858E-1
1.060667304E1,-1.149917542E-2,3.368151076E-2,-9.775831211E-1,9.782307671E-1
1.061666104E1,-4.174676260E-2,-1.295876378E-2,-8.231043613E-1,8.242642242E-1
1.062664904E1,-2.555220906E-2,-1.361470946E-2,-8.287925327E-1,8.292980996E-1
1.063663704E1,-3.913516882E-3,3.888390643E-2,-9.561776340E-1,9.569759357E-1
1.064662504E1,-6.487214533E-3,9.505469024E-3,-9.265392673E-1,9.266107337E-1
1.065661304E1,-6.933741382E-3,-2.231427913E-2,-7.717605454E-1,7.721142035E-1
1.066660104E1,2.001640332E-2,-4.931420626E-3,-8.434614426E-1,8.437133284E-1
1.067658904E1,3.505098120E-2,3.417122420E-2,-1.033566703E0,1.034725264E0
1.068657704E1,1.641319030E-2,-1.805194900E-2,-9.150126511E-1,9.153378706E-1
1.069656504E1,7.061672065E-4,-1.602303369E-2,-8.081349045E-1,8.082940431E-1
1.070655304E1,3.214488989E-2,4.607927074E-2,-9.304305893E-1,9.321253535E-1
1.071654104E1,3.701184268E-2,5.621652456E-2,-9.400118369E-1,9.424183931E-1
1.072652904E1,-5.108494758E-3,-3.390775232E-3,-7.735579795E-1,7.735822785E-1
1.073651704E1,7.013952162E-4,1.230325893E-2,-7.876287192E-1,7.877251180E-1
1.074650404E1,1.547142769E-2,6.309489213E-2,-9.389640158E-1,9.412086663E-1
1.075649204E1,2.155642288E-3,2.611572533E-2,-8.733997715E-1,8.737927893E-1
1.076648004E1,-2.690585091E-2,-1.198261224E-3,-7.975075901E-1,7.979622277E-1
1.077646804E1,2.755495351E-2,2.045632179E-2,-9.244436252E-1,9.250804034E-1
1.078645604E1,1.542762497E-2,3.744898144E-2,-9.702489585E-1,9.710939600E-1
1.079644404E1,-7.729298469E-3,-1.331178943E-2,-8.064894980E-1,8.066363841E-1
1.080643204E1,-1.104525332E-2,-2.043421201E-2,-7.853833884E-1,7.857268109E-1
1.081642004E1,4.348997404E-3,3.392853506E-2,-9.257914084E-1,9.264231167E-1
1.082640804E1,1.196998591E-2,2.291202903E-2,-8.900163889E-1,8.903917195E-1
1.083639604E1,-5.869324866E-3,-1.909617949E-2,-7.701151389E-1,7.703742209E-1
1.084638404E1,2.178414224E-2,-2.152111118E-3,-8.765432346E-1,8.768165273E-1
1.085637204E1,2.586565865E-2,3.505894574E-2,-9.599198520E-1,9.609080519E-1
1.086636004E1,-7.135607366E-4,-1.758520415E-3,-8.771425742E-1,8.771446272E-1
1.087634804E1,-1.356061358E-2,-2.733727264E-2,-8.663649863E-1,8.669022472E-1
1.088633604E1,2.172154962E-2,1.133023200E-2,-9.757886106E-1,9.760961082E-1
1.089632404E1,1.138679696E-2,1.347865206E-2,-8.879213315E-1,8.880966300E-1
1.090631204E1,-4.172817485E-3,-2.413492621E-2,-7.090433103E-1,7.094662240E-1
1.091630004E1,-6.711472955E-4,1.285786733E-3,-7.430232346E-1,7.430246502E-1
1.092628804E1,2.444163095E-2,1.919952902E-2,-7.457176316E-1,7.463650590E-1
1.093627604E1,5.469894941E-3,8.836058762E-3,-6.428826499E-1,6.429666377E-1
1.094626404E1,-7.156276474E-3,-6.423611788E-3,-5.708823752E-1,5.709633626E-1
1.095625104E1,2.931804663E-2,1.271669591E-2,-6.574024558E-1,6.581787380E-1
1.096623904E1,1.493394752E-2,4.441213363E-2,-7.449703574E-1,7.464424250E-1
1.097622704E1,-1.970766120E-2,-4.237988815E-3,-5.722295737E-1,5.725845243E-1
1.098621504E1,2.023617412E-3,-6.821421166E-3,-5.708817905E-1,5.709261297E-1
1.099620304E1,2.238896589E-2,2.478143412E-2,-7.301505893E-1,7.309139952E-1
1.100619104E1,7.686483032E-3,1.002128938E-2,-6.156387180E-1,6.157682514E-1
1.101617817E1,-3.468425000E-3,-7.360913604E-3,-4.681947434E-1,4.682654490E-1
1.102616617E1,1.660145351E-2,1.304623219E-2,-6.696763462E-1,6.700091201E-1
1.103615417E1,-5.712364241E-4,3.739359049E-2,-6.606950229E-1,6.617526126E-1
1.104614217E1,-1.809164840E-2,-9.308835841E-3,-4.524774277E-1,4.529346363E-1
1.105613017E1,-4.528040404E-4,-2.553931321E-3,-4.333172715E-1,4.333250343E-1
1.106611817E1,1.617409628E-2,2.154135260E-2,-5.286689866E-1,5.293548230E-1
1.107610617E1,6.963030565E-3,1.571941016E-2,-4.716381687E-1,4.719514232E-1
1.108609417E1,-1.495925957E-2,-2.465410643E-2,-4.101161045E-1,4.111287190E-1
1.109608217E1,2.899048949E-3,-2.997714432E-3,-4.331681675E-1,4.331882409E-1
1.110607017E1,1.517079744E-2,3.724675000E-2,-4.571177781E-1,4.588835762E-1
1.111605817E1,-2.950729999E-3,3.257077276E-3,-3.418580478E-1,3.418862972E-1
1.112604617E1,1.262852629E-2,-1.154273032E-2,-3.283860630E-1,3.288314472E-1
1.113603417E1,1.597454520E-2,2.711001695E-2,-4.536755222E-1,4.547654545E-1
1.114602217E1,5.723436264E-4,2.755280649E-2,-3.961956382E-1,3.971529535E-1
1.115600917E1,-1.576349155E-2,4.172696429E-4,-2.453088230E-1,2.458151346E-1
1.116599717E1,-5.794554166E-3,1.550361365E-2,-2.932092136E-1,2.936759810E-1
1.117598517E1,1.972505096E-3,4.402379171E-2,-3.503914744E-1,3.531517667E-1
1.118597317E1,3.697975609E-3,1.011684110E-2,-2.074381614E-1,2.077176360E-1
1.119596117E1,-3.235850284E-3,-1.400654828E-3,-1.809432578E-1,1.809776094E-1
1.120594917E1,-5.710417644E-3,2.827057733E-2,-2.834800315E-1,2.849434377E-1
1.121593717E1,9.661579403E-3,2.945855111E-2,-3.310804600E-1,3.325288308E-1
1.122592517E1,1.019474040E-2,-9.725833680E-3,-2.161195225E-1,2.165783289E-1
1.123591317E1,3.089798486E-2,-7.402721196E-3,-2.249505723E-1,2.271832866E-1
1.124590117E1,3.020438174E-2,3.024916548E-2,-3.435040390E-1,3.461536386E-1
1.125588917E1,1.903542555E-2,7.060330175E-3,-2.463566440E-1,2.471918117E-1
1.126587717E1,-6.423770530E-3,-1.428895281E-2,-1.475615036E-1,1.483908230E-1
1.127586517E1,5.595623782E-3,1.913600679E-2,-2.421653599E-1,2.429846894E-1
1.128585317E1,1.455943907E-2,3.150836108E-2,-2.390218967E-1,2.415289241E-1
1.129584117E1,-1.036674219E-3,-2.944479645E-3,-8.544068456E-2,8.549769138E-2
1.130582917E1,1.251496582E-3,-1.534878120E-2,-1.219647324E-1,1.229331008E-1
1.131581717E1,1.105207127E-2,2.960469496E-2,-2.602771103E-1,2.621884063E-1
1.132580517E1,-9.721772606E-3,2.599894547E-2,-1.836364853E-1,1.857224186E-1
1.133579317E1,-1.009775885E-2,-1.355291170E-2,-1.412745774E-1,1.422819467E-1
1.134578117E1,1.225568407E-3,1.734021951E-2,-2.499485886E-1,2.505523542E-1
1.135576817E1,2.172586194E-2,4.182099483E-2,-3.259904587E-1,3.293793981E-1
1.136575617E1,-1.165437445E-2,3.666316133E-3,-1.927674973E-1,1.931542760E-1
1.137574417E1,-1.146132155E-2,-1.156181143E-2,-1.432205307E-1,1.441428382E-1
1.138573217E1,1.466142958E-2,3.218062643E-2,-2.439610398E-1,2.465107283E-1
1.139572017E1,3.533108110E-3,1.241797171E-2,-1.767508042E-1,1.772217133E-1
1.140570817E1,1.270140863E-3,-2.676507005E-2,-6.418430150E-2,6.955290642E-2
1.141569617E1,9.197939741E-3,-1.045458176E-2,-1.188212693E-1,1.196344198E-1
1.142568417E1,8.337217035E-3,2.650459487E-2,-1.727092087E-1,1.749299103E-1
1.143567217E1,8.118158295E-3,-4.089231994E-3,-5.939484715E-2,6.008638932E-2
1.144566017E1,1.457514432E-2,-2.216866747E-2,-4.218064427E-2,4.983062714E-2
1.145564817E1,2.769699060E-2,1.782616882E-2,-1.529502976E-1,1.564566685E-1
1.146563617E1,1.457613789E-2,2.306355642E-2,-1.387304538E-1,1.413878717E-1
1.147562417E1,-1.249811168E-2,-2.071947162E-3,-1.643476903E-2,2.075084080E-2
1.148561217E1,-2.149731690E-3,1.825564452E-2,-8.873442113E-2,9.061836126E-2
1.149560017E1,-7.833032300E-3,5.495296410E-2,-1.538495994E-1,1.635569744E-1
1.150558817E1,1.011076548E-2,2.617901916E-2,-1.838072240E-2,3.354727379E-2
1.151557617E1,-1.251719850E-2,7.019251201E-3,3.490846217E-2,3.774322292E-2
1.152556417E1,-4.280555859E-3,3.911901475E-2,-1.089423984E-1,1.158320623E-1
1.153555217E1,8.978771938E-3,4.117674130E-2,-9.741636693E-2,1.061418434E-1
1.154554017E1,-1.787055284E-5,-2.203973180E-3,1.964021266E-2,1.976349590E-2
1.155552817E1,-3.860364893E-3,1.534020453E-2,1.200608790E-2,1.985876226E-2
1.156551517E1,1.806146671E-2,3.653030392E-2,-6.568294287E-2,7.729766276E-2
1.157550317E1,1.517547978E-2,2.586497115E-2,-1.014842749E-2,3.165884552E-2
1.158549117E1,2.675580815E-4,-3.907712493E-3,1.131956631E-1,1.132634096E-1
1.159547917E1,4.168145423E-3,1.572784980E-2,8.563247323E-3,1.838662286E-2
1.160546717E1,1.322914497E-2,4.282588909E-2,-1.511552024E-1,1.576609091E-1
1.161545517E1,-1.531104725E-2,1.762871565E-2,4.523698390E-2,5.090760744E-2
1.162544317E1,-2.828716196E-3,-4.840571797E-3,6.709153712E-2,6.732538246E-2
1.163543117E1,4.470540690E-3,5.357977292E-2,-1.001107639E-1,1.136351304E-1
1.164541917E1,1.299910843E-3,4.051847273E-2,-3.694212377E-2,5.484666725E-2
1.165540717E1,-1.911893110E-2,8.469392660E-3,3.565749049E-2,4.133667580E-2
1.166539517E1,4.017977047E-3,1.851825074E-2,-1.119507909E-2,2.200907872E-2
1.167538317E1,-6.744561115E-3,3.166941990E-2,9.911030531E-3,3.386251301E-2
1.168537117E1,-9.069712129E-3,-7.331277814E-3,5.930830836E-2,6.044404647E-2
1.169535917E1,-5.803488301E-3,-4.298660986E-2,8.730068386E-2,9.748301650E-2
1.170534717E1,1.941093785E-2,-2.570523709E-2,1.769542873E-2,3.675148868E-2
1.171533517E1,2.175030376E-2,-8.185827825E-3,-1.867893040E-2,2.981586712E-2
1.172532317E1,1.694574145E-2,-4.352988929E-2,2.353328884E-2,5.230511541E-2
1.173531117E1,8.736068520E-3,-3.432111164E-2,4.254375637E-2,5.535547672E-2
1.174529917E1,3.403258352E-2,1.216960437E-2,-3.499441624E-2,5.030830130E-2
1.175528717E1,2.855447107E-2,-1.205577096E-3,-2.316900730E-2,3.679149540E-2
1.176527417E1,2.172149252E-5,-2.611357374E-2,4.074807644E-2,4.839757162E-2
1.177526217E1,-8.832202113E-4,1.714037036E-2,-5.656011701E-3,1.807104984E-2
1.178525017E1,-8.635297125E-3,5.025284425E-2,-1.179324925E-2,5.233543197E-2
1.179523817E1,-6.109077267E-3,2.102126561E-2,2.817422390E-2,3.567914412E-2
1.180522617E1,-5.773175284E-3,1.982752684E-2,4.478967190E-2,4.932114234E-2
1.181521417E1,4.201853136E-3,5.884059963E-2,-2.496527195E-2,6.405572994E-2
1.182520217E1,1.069029764E-2,5.041560241E-2,1.530099392E-2,5.375998368E-2
1.183519017E1,-3.395307966E-3,2.632830588E-2,7.308142483E-2,7.775347235E-2
1.184517817E1,2.510918312E-3,3.703424711E-2,3.281515896E-2,4.954467507E-2
1.185516617E1,6.762640660E-3,5.097758379E-2,-2.406655490E-2,5.677716463E-2
1.186515417E1,1.264579842E-2,3.747766705E-2,2.742636502E-2,4.813208123E-2
1.187514217E1,-6.560001519E-3,2.157388459E-2,8.281119168E-2,8.582633386E-2
1.188513017E1,5.660672343E-3,4.460415071E-2,1.679905057E-3,4.499328342E-2
1.189511817E1,2.427073008E-2,2.847784286E-2,-4.337639987E-2,5.728497131E-2
1.190510617E1,2.829787195E-2,-1.738130534E-2,6.529761136E-2,7.325747321E-2
1.191509417E1,4.982960177E-2,-1.548177795E-2,2.622885525E-2,5.840057799E-2
1.192508217E1,3.869046866E-2,5.404266226E-3,-4.143044651E-2,5.694418632E-2
1.193507017E1,1.743698522E-2,-1.399585884E-2,3.865301907E-2,4.465409725E-2
1.194505817E1,1.190551922E-2,-3.002402255E-2,6.544730008E-2,7.298309671E-2
1.195504617E1,3.234252578E-3,-1.026055698E-2,-7.002040744E-3,1.283619858E-2
1.196503317E1,-1.254723286E-2,-6.678447607E-3,3.251578152E-2,3.548676884E-2
1.197502117E1,-2.042920076E-2,-3.376978544E-2,9.942722440E-2,1.069744063E-1
1.198500917E1,-2.155864071E-2,-3.241440314E-2,1.605060697E-2,4.210808122E-2
1.199499717E1,-2.576839159E-2,-3.445142917E-3,-3.408926725E-3,2.622021732E-2
1.200498517E1,-2.043610093E-2,-1.485304695E-2,9.164925814E-3,2.687458074E-2
1.201497000E1,-1.800243496E-2,-3.022542258E-2,9.614576697E-3,3.647058979E-2
1.202495800E1,-1.278965134E-2,7.540091935E-3,-1.882686496E-2,2.397663471E-2
1.203494600E1,-2.382980206E-3,3.522245080E-2,-6.717632174E-2,7.588779769E-2
1.204493400E1,-1.196658950E-2,1.861534878E-2,-1.927593112E-2,2.934777666E-2
1.205492200E1,-7.494307780E-3,2.189242308E-2,3.880329251E-2,4.517895912E-2
1.206491000E1,-2.353515720E-4,4.903967035E-2,-1.538343966E-2,5.139644807E-2
1.207489800E1,4.055221641E-3,6.437749716E-2,-1.957472384E-2,6.740976766E-2
1.208488600E1,2.034140116E-3,2.651321723E-2,3.476286650E-2,4.376694301E-2
1.209487400E1,-7.780611212E-4,3.690744476E-2,4.524107695E-2,5.839109436E-2
1.210486200E1,1.860444692E-2,5.385355052E-2,-3.648896456E-2,6.765925571E-2
1.211485000E1,2.317270978E-2,2.957482619E-2,-2.975238740E-2,4.792545648E-2
1.212483800E1,2.118996235E-2,8.143771270E-3,2.189022124E-2,3.153596836E-2
1.213482600E1,1.803798877E-2,2.926436188E-2,-6.522861421E-2,7.373292363E-2
1.214481400E1,2.200557356E-2,4.205706246E-2,-1.168712229E-1,1.261424770E-1
1.215480200E1,1.706656640E-2,-1.022422202E-3,-4.262503266E-2,4.592609765E-2
1.216478900E1,1.398241481E-2,-4.433004877E-3,-2.511145234E-2,2.908168659E-2
1.217477700E1,1.805135743E-2,2.502506658E-2,-9.606390595E-2,1.008978666E-1
1.218476500E1,1.692718453E-2,8.119037091E-3,-5.759390473E-2,6.057644924E-2
1.219475300E1,4.870887097E-3,-1.114493693E-2,2.817714751E-2,3.069017436E-2
1.220474100E1,3.102515495E-3,-5.176741015E-3,-1.837604463E-2,1.934174931E-2
1.221472900E1,3.649027447E-3,2.285648048E-2,-4.831320405E-2,5.357144563E-2
1.222471700E1,3.649910811E-3,-1.406140476E-2,4.539193511E-2,4.765996985E-2
1.223470500E1,-1.552669873E-2,-2.393659825E-2,5.841543853E-2,6.501078809E-2
1.224469300E1,2.093772009E-3,9.182727844E-3,-2.600899994E-2,2.766178682E-2
1.225468100E1,-9.702837677E-3,1.135364827E-3,-3.768413544E-2,3.892978520E-2
1.226466900E1,-1.574752248E-2,-1.350248175E-2,4.015399933E-2,4.519563187E-2
1.227465700E1,-2.022291510E-2,8.001688498E-3,1.395905793E-2,2.584276712E-2
1.228464500E1,-9.792022562E-3,1.611939626E-2,-7.121440887E-2,7.366960481E-2
1.229463300E1,-1.209999738E-2,1.351003745E-4,-1.867425263E-2,2.225209878E-2
1.230462100E1,-1.008777633E-2,1.588994558E-3,1.770010650E-2,2.043482090E-2
1.231460900E1,-8.021733484E-3,2.774499487E-2,-4.456981659E-2,5.310933533E-2
1.232459700E1,1.338539811E-2,3.396756979E-2,-7.989635468E-2,8.784299728E-2
1.233458500E1,9.017527443E-3,1.021356912E-2,8.419990540E-3,1.601652385E-2
1.234457300E1,1.793100757E-2,1.288904259E-2,1.126466095E-2,2.478993823E-2
1.235456100E1,2.559577082E-2,4.009095903E-2,-6.807036102E-2,8.304217320E-2
1.236454800E1,2.727117169E-2,2.879842788E-2,-2.795378387E-2,4.852298719E-2
1.237453600E1,2.669603179E-2,1.481446903E-3,4.269929230E-2,5.037958279E-2
1.238452400E1,2.529810643E-2,2.135784367E-2,-2.421098113E-2,4.101613442E-2
1.239451200E1,2.330865069E-2,3.612876922E-2,-8.857654631E-2,9.846007170E-2
1.240450000E1,1.571770054E-2,1.294651204E-3,2.134818435E-3,1.591476301E-2
1.241448800E1,1.232418328E-3,9.491406013E-3,-1.358249724E-2,1.661595240E-2
1.242447600E1,1.339926012E-4,1.971215396E-2,-9.860569060E-2,1.005567958E-1
1.243446400E1,-8.229002432E-3,1.325183719E-2,-6.732074797E-2,6.910434702E-2
1.244445200E1,-1.714636947E-2,-8.577461082E-3,-5.798099041E-3,2.002969738E-2
1.245444000E1,-1.129981962E-2,-1.068866453E-3,-3.438922942E-2,3.621391306E-2
1.246442800E1,-1.264487679E-2,1.850173921E-2,-6.612265348E-2,6.981699340E-2
1.247441600E1,-5.209699554E-3,-2.969177279E-3,1.695517123E-2,1.798429355E-2
1.248440400E1,-8.328928721E-3,-1.592365386E-2,5.407855868E-2,5.698617653E-2
1.249439200E1,3.667029334E-3,1.629555048E-2,-2.929805875E-2,3.372489164E-2
1.250438000E1,1.537408297E-3,2.858040667E-2,-2.795144498E-2,4.000608137E-2
1.251436800E1,1.012077655E-3,-1.015876518E-2,4.464758456E-2,4.579990849E-2
1.252435600E1,5.633673510E-3,-4.655744964E-3,1.979867220E-2,2.110454120E-2
1.253434400E1,9.664217503E-3,2.967262316E-2,-5.609350920E-2,6.418990138E-2
1.254433200E1,9.091095580E-3,1.689862454E-2,-3.034704924E-2,3.590480368E-2
1.255431900E1,-1.320184236E-3,-6.071472361E-3,1.237270832E-3,6.335337573E-3
1.256430700E1,4.033785086E-4,2.151819899E-2,-4.696191251E-2,5.165865686E-2
1.257429500E1,1.113592856E-2,3.918928184E-2,-6.582269132E-2,7.741082230E-2
1.258428300E1,8.104876436E-3,6.600583708E-3,-7.086825371E-4,1.047659097E-2
1.259427100E1,1.591608903E-2,4.869001599E-3,1.381170809E-2,2.162850774E-2
1.260425900E1,2.555716549E-2,2.710769633E-2,-4.666253507E-2,5.971087077E-2
1.261424700E1,1.997196905E-2,2.349487080E-2,-3.917809904E-2,4.985791759E-2
1.262423500E1,1.193310391E-2,-1.034773303E-2,4.150412142E-2,4.440795698E-2
1.263422300E1,5.103279087E-3,-2.026916749E-3,7.824159265E-3,9.558729892E-3
1.264421100E1,1.823396757E-2,1.988989105E-2,-5.699105680E-2,6.305605359E-2
1.265419900E1,1.752240254E-2,-1.324353917E-2,-6.995024085E-3,2.305116662E-2
1.266418700E1,4.196094428E-3,-2.186260000E-2,2.174579501E-2,3.112009138E-2
1.267417500E1,-4.073660356E-3,3.174581742E-2,-5.714016080E-2,6.549343180E-2
1.268416300E1,1.061477149E-2,9.907017422E-3,-7.674879849E-2,7.811018139E-2
1.269415100E1,1.122040941E-2,-1.157110987E-2,4.082525969E-3,1.662694167E-2
1.270413900E1,-8.413910349E-3,9.497467931E-3,-1.732296109E-2,2.147279128E-2
1.271412700E1,1.758843610E-2,1.194635265E-2,-9.815545499E-2,1.004318763E-1
1.272411500E1,-5.171065105E-3,1.450910733E-2,-2.959802091E-2,3.336610483E-2
1.273410300E1,-1.008029144E-2,-4.657537958E-3,4.285131991E-2,4.426669802E-2
1.274409000E1,7.850092580E-4,1.584796897E-2,-5.115261197E-2,5.355711037E-2
1.275407800E1,2.360540602E-2,2.208738432E-2,-6.327681363E-2,7.105647671E-2
1.276406600E1,1.766621207E-2,-6.825315503E-3,3.282392979E-2,3.789578271E-2
1.277405400E1,-4.777272261E-3,4.343035414E-3,3.566801548E-2,3.624764289E-2
1.278404200E1,4.675196093E-2,1.754263368E-2,-7.046070278E-2,8.636087356E-2
1.279403000E1,-9.767129640E-3,2.533786978E-2,-2.136280239E-2,3.455103171E-2
1.280401800E1,2.680644139E-2,-1.085737041E-2,4.045863926E-2,4.973297983E-2
1.281400600E1,3.000124125E-3,1.028225563E-2,-1.447712123E-2,1.800868027E-2
1.282399400E1,2.998073031E-2,2.089539744E-2,-8.737552822E-2,9.470979229E-2
1.283398200E1,-1.465845230E-2,8.411005014E-3,5.730856061E-3,1.784538989E-2
1.284397000E1,-2.303129167E-3,-1.908275373E-3,2.114937901E-2,2.135982564E-2
1.285395800E1,-3.309874664E-3,2.805110575E-2,-5.683844447E-2,6.346990290E-2
1.286394600E1,-3.463864286E-3,2.197929306E-2,-5.279684901E-2,5.729393463E-2
1.287393400E1,-5.961083325E-3,-1.357284705E-2,3.147848547E-2,3.479442108E-2
1.288392200E1,1.537761757E-3,-4.196167518E-3,4.929202795E-4,4.496165418E-3
1.289391000E1,-6.355318136E-4,3.380570927E-2,-9.351218104E-2,9.943720573E-2
1.290389800E1,1.034606109E-2,-7.287871374E-3,-1.911630213E-2,2.292568552E-2
1.291388600E1,5.431083476E-3,-1.183209440E-2,3.626852453E-2,3.853441315E-2
1.292387400E1,2.243285199E-2,6.835417938E-3,-2.210949183E-2,3.223019416E-2
1.293386100E1,1.335660514E-2,1.938247150E-2,-6.956081629E-2,7.343559263E-2
1.294384900E1,1.428205150E-2,-1.866663754E-2,3.073121130E-2,3.868885757E-2
1.295383700E1,-3.569326586E-3,-1.830219612E-3,2.040210485E-2,2.079268329E-2
1.296382500E1,2.318346546E-2,3.230215258E-2,-8.213466883E-2,9.125242986E-2
1.297381300E1,1.654914605E-2,2.023382382E-2,-4.830560267E-2,5.492461298E-2
1.298380100E1,6.350368559E-3,-6.662995883E-3,2.519214392E-2,2.682101434E-2
1.299378900E1,2.612783090E-2,2.361903962E-2,-4.800505579E-2,5.953996944E-2
1.300377700E1,9.568781122E-3,4.564157467E-2,-1.069829965E-1,1.167050832E-1
1.301376488E1,-7.841378858E-4,3.240979160E-4,-2.001326501E-2,2.003124280E-2
1.302375288E1,-3.481721134E-3,8.645688496E-3,3.058152258E-2,3.197029614E-2
1.303374088E1,2.261058222E-2,2.928391351E-2,-5.219633996E-2,6.397846454E-2
1.304372887E1,3.609915627E-3,2.833670569E-2,-5.234544396E-2,5.963259079E-2
1.305371688E1,-4.592041149E-3,-8.342811861E-4,4.629942298E-2,4.653406747E-2
1.306370488E1,-2.968743306E-3,2.306774540E-3,3.192930579E-2,3.214988669E-2
1.307369288E1,1.305750293E-2,3.476567133E-2,-5.518894494E-2,6.652044745E-2
1.308368088E1,2.939422717E-3,8.482450680E-3,-3.546921015E-3,9.652607116E-3
1.309366888E1,-4.009594516E-3,-2.129253302E-2,2.040385902E-2,2.976182577E-2
1.310365688E1,5.141884986E-3,2.146911436E-2,-2.794501305E-2,3.561299772E-2
1.311364488E1,-4.005595112E-3,2.730376078E-2,-7.315159142E-2,7.818372895E-2
1.312363188E1,-1.425244540E-2,1.241178873E-3,-2.648788691E-3,1.454952942E-2
1.313361988E1,1.988382228E-3,-8.142058218E-3,1.127343178E-2,1.404767027E-2
1.314360788E1,4.902723588E-3,3.221559552E-2,-7.105536461E-2,7.817126155E-2
1.315359588E1,1.297862718E-2,1.515336771E-2,-4.051886559E-2,4.516467408E-2
1.316358388E1,-6.248949061E-3,-3.783141675E-3,4.794658363E-2,4.849985987E-2
1.317357188E1,2.086923572E-2,1.550105549E-2,1.426662147E-2,2.965373853E-2
1.318355988E1,1.722912242E-2,3.158054679E-2,-3.557913780E-2,5.059692324E-2
1.319354788E1,2.522995439E-2,-3.296534561E-3,2.474541664E-2,3.549300471E-2
1.320353588E1,1.566496939E-2,7.911787557E-3,5.198876381E-2,5.487093229E-2
1.321352387E1,3.823333060E-2,2.727629714E-2,-4.515980065E-2,6.515513448E-2
1.322351188E1,1.922339754E-2,2.924573074E-2,-6.701493859E-2,7.560326563E-2
1.323349988E1,7.304714096E-3,-1.510988818E-2,-1.252444357E-1,1.263639040E-1
1.324348788E1,7.165351650E-4,1.990278005E-3,8.896070838E-2,8.898585429E-2
1.325347588E1,-9.295720719E-3,3.928634105E-2,-1.364710897E-1,1.423171998E-1
1.326346388E1,1.916085517E-2,1.440740689E-2,-8.542723596E-2,8.872724716E-2
1.327345188E1,-7.867261923E-3,1.587866228E-2,3.986222327E-2,4.362364691E-2
1.328343988E1,8.117905335E-3,4.312853275E-2,-9.096630335E-2,1.009992033E-1
1.329342788E1,3.588374576E-3,4.100994947E-2,-1.372201180E-1,1.432621834E-1
1.330341488E1,-3.059802270E-3,-5.039349720E-3,7.069751501E-2,7.094290707E-2
1.331340288E1,-9.938759124E-3,-6.364991167E-4,8.177448034E-2,8.237869688E-2
1.332339088E1,1.343690500E-2,-3.856003464E-3,-5.100058436E-2,5.288174339E-2
1.333337888E1,-3.459615918E-3,-1.223231348E-2,-1.447653651E-2,1.926573499E-2
1.334336688E1,-1.225311906E-2,-3.480468779E-2,7.054724157E-2,7.961418537E-2
1.335335487E1,-2.935485668E-2,2.458114643E-4,-2.650542855E-3,2.947530172E-2
1.336334288E1,-1.642022980E-2,1.683560024E-2,-9.815253139E-2,1.009305742E-1
1.337333088E1,-2.662234546E-2,-1.170175860E-2,8.874319196E-3,3.040450580E-2
1.338331888E1,-2.913039441E-3,-2.147694643E-2,3.656673253E-2,4.250730472E-2
1.339330688E1,5.208921258E-4,1.939925484E-2,-6.417377651E-2,6.704383647E-2
1.340329488E1,3.456535852E-3,1.519048611E-2,-6.402467251E-2,6.589277045E-2
1.341328288E1,-3.655213276E-3,-1.392877803E-2,3.027980626E-2,3.352966013E-2
1.342327088E1,2.110363826E-2,1.195573789E-2,-1.597400844E-2,2.904259220E-2
1.343325888E1,2.602171079E-2,2.950832782E-2,-1.015965414E-1,1.089482816E-1
1.344324688E1,3.847797719E-2,3.758366383E-4,-2.106400967E-2,4.386785252E-2
1.345323488E1,3.159422379E-2,-2.564979361E-3,3.596797764E-2,4.794235613E-2
1.346322288E1,3.910910189E-2,2.213372122E-2,-5.504334927E-2,7.105767914E-2
1.347321088E1,3.633448158E-2,2.350876479E-2,-6.791716397E-2,8.053320890E-2
1.348319888E1,4.050831776E-2,4.400466036E-3,1.336381137E-2,4.288215670E-2
1.349318588E1,1.954222840E-2,8.553345886E-3,7.675639987E-3,2.267099172E-2
1.350317388E1,2.246944277E-2,1.881422949E-2,-9.755553067E-2,1.018623220E-1
1.351316188E1,-4.743216798E-4,4.005098327E-3,-4.546444058E-2,4.564297483E-2
1.352314987E1,-1.101067481E-2,-6.610640462E-3,2.623645663E-2,2.921107981E-2
1.353313788E1,-1.497340138E-2,1.749368837E-2,-5.025506437E-2,5.527932142E-2
1.354312588E1,-6.144238790E-3,3.470872950E-2,-9.935296476E-2,1.054203926E-1
1.355311388E1,-8.824407728E-3,1.069126837E-3,-7.594363689E-3,1.169134568E-2
1.356310188E1,-1.649986271E-2,1.362547427E-3,-2.720358610E-2,3.184551933E-2
1.357308988E1,1.695525231E-3,2.957053671E-2,-1.176161581E-1,1.212883016E-1
1.358307788E1,1.280997042E-4,1.657814002E-2,-6.133319914E-2,6.353434074E-2
1.359306588E1,-2.375950984E-3,-1.645017279E-2,1.380995393E-2,2.160944598E-2
1.360305388E1,3.004471278E-3,-6.391212274E-4,-2.555817962E-2,2.574210304E-2
1.361304188E1,9.382213829E-3,2.657583268E-2,-3.738417327E-2,4.681748851E-2
1.362302988E1,6.987430128E-3,-4.689304784E-3,6.260789216E-2,6.317089456E-2
1.363301788E1,-6.968061797E-3,-8.093533181E-3,5.691913605E-2,5.791240984E-2
1.364300588E1,1.183022832E-2,2.865904259E-2,-4.666487396E-2,5.602593583E-2
1.365299388E1,1.210147746E-2,3.143961975E-2,-3.109724700E-2,4.584685614E-2
1.366298188E1,3.398003167E-3,-9.480803367E-4,4.045454621E-2,4.060807298E-2
1.367296888E1,1.387221878E-2,1.505393307E-2,-1.852280974E-2,2.760713378E-2
1.368295688E1,3.029642971E-2,3.385600218E-2,-7.495604217E-2,8.764993323E-2
1.369294487E1,1.335523470E-2,1.501499884E-2,-4.711394012E-2,5.122046307E-2
1.370293288E1,-8.666287939E-3,-1.482597617E-2,-1.418242157E-2,2.227229664E-2
1.371292088E1,1.841453804E-3,7.797826238E-3,-8.723051727E-2,8.759771794E-2
1.372290888E1,4.168653057E-3,2.228901505E-3,-9.052425385E-2,9.064759348E-2
1.373289688E1,-5.122464693E-3,-2.468475178E-2,4.977149963E-3,2.569724959E-2
1.374288488E1,-9.431484615E-3,-1.429714576E-2,1.560563385E-2,2.317103984E-2
1.375287288E1,1.840894778E-3,1.834442399E-2,-4.531767547E-2,4.892441614E-2
1.376286088E1,7.504610071E-4,7.153177564E-4,4.827461243E-3,4.937535141E-3
1.377284888E1,8.920572727E-4,-4.233788413E-3,3.596271515E-2,3.622205973E-2
1.378283688E1,1.691410482E-3,1.054437763E-2,-2.870339692E-2,3.062563899E-2
1.379282488E1,1.304584618E-2,2.575934211E-2,-8.079507172E-2,8.579965864E-2
1.380281288E1,7.073821026E-3,-2.955173654E-4,1.859414577E-4,7.082432396E-3
1.381280088E1,3.282618873E-3,-8.116195709E-3,-1.223880708E-2,1.504781108E-2
1.382278888E1,7.936409817E-3,2.796377895E-2,-1.158234018E-1,1.194153254E-1
1.383277688E1,2.150652740E-3,1.578495151E-2,-8.019807100E-2,8.176503283E-2
1.384276488E1,8.709371184E-3,-1.476592115E-2,-1.149094820E-2,2.063801019E-2
1.385275288E1,-2.002787277E-3,1.078118758E-2,-9.844372272E-3,1.473624199E-2
1.386273988E1,7.673130938E-3,3.811553433E-2,-3.978211641E-2,5.562632184E-2
1.387272788E1,-2.281087905E-4,8.174775217E-3,1.186049223E-2,1.440660471E-2
1.388271588E1,8.155889967E-3,-2.944276363E-3,3.730757475E-2,3.830199000E-2
1.389270388E1,1.497666988E-2,2.587686657E-2,-1.388538301E-2,3.296538678E-2
1.390269188E1,1.427061174E-2,1.084510496E-2,-3.214740694E-2,3.680655422E-2
1.391267988E1,-6.016493688E-4,-1.967080319E-2,3.117092192E-2,3.686365220E-2
1.392266788E1,-4.059900556E-3,-2.919829977E-3,-8.047522902E-3,9.474746671E-3
1.393265588E1,1.814212289E-3,3.720080139E-2,-6.118760347E-2,7.163179329E-2
1.394264388E1,-4.718931438E-4,1.856693338E-2,-2.780643404E-2,3.343877199E-2
1.395263188E1,-1.100352910E-3,-6.396100181E-3,9.764850140E-3,1.172489541E-2
1.396261988E1,1.819296054E-3,1.574140803E-2,-5.355347872E-2,5.584869602E-2
1.397260788E1,-1.061897189E-3,3.157918777E-2,-6.328383029E-2,7.073341432E-2
1.398259588E1,-6.147001371E-3,-6.163666507E-3,6.332534552E-4,8.727967725E-3
1.399258388E1,-6.996701733E-3,-3.059343172E-3,-5.054333210E-3,9.157494198E-3
1.400257187E1,6.122134145E-3,2.171533924E-2,-5.939133883E-2,6.353241387E-2
1.401256013E1,9.055003870E-3,4.967164015E-3,-3.409394503E-2,3.562390912E-2
1.402254813E1,-7.380788999E-3,-2.119466296E-2,9.016406536E-3,2.418647083E-2
1.403253613E1,1.193063255E-3,6.526794587E-4,-4.006512165E-3,4.231019988E-3
1.404252413E1,1.142832589E-3,1.680816629E-2,-6.627701998E-2,6.838467590E-2
1.405251213E1,-7.237971898E-3,-1.711423605E-2,-9.544410110E-3,2.088973617E-2
1.406249913E1,-1.124283211E-2,-1.224330670E-2,3.311746001E-2,3.705490508E-2
1.407248713E1,1.010937334E-3,2.400469547E-2,-6.627585053E-2,7.049635284E-2
1.408247513E1,8.905399659E-3,1.261695291E-2,-7.241308808E-2,7.404153544E-2
1.409246313E1,-3.319170823E-3,-1.837064281E-2,2.084298491E-2,2.798084045E-2
1.410245113E1,8.537448768E-3,6.613664569E-3,-3.139837861E-2,3.320371621E-2
1.411243913E1,1.834224042E-2,2.631521589E-2,-9.920795381E-2,1.042647902E-1
1.412242712E1,1.661032026E-2,1.199301389E-2,-1.059223115E-2,2.306361815E-2
1.413241513E1,7.127958020E-3,-1.705797716E-2,2.174053252E-2,2.853827473E-2
1.414240313E1,9.519272792E-3,2.279205604E-2,-5.654666841E-2,6.170591610E-2
1.415239113E1,1.749945564E-2,2.550408830E-2,-5.519946992E-2,6.327456794E-2
1.416237913E1,1.937603956E-3,-7.758695574E-3,5.078014433E-2,5.140597946E-2
1.417236713E1,4.188309180E-3,4.241812346E-3,2.443492949E-2,2.515155432E-2
1.418235513E1,1.288137497E-2,3.917888476E-2,-4.262561738E-2,5.931153420E-2
1.419234313E1,6.865548230E-3,1.928437075E-2,-2.509040236E-3,2.062323909E-2
1.420233113E1,-6.906341695E-3,-5.561177172E-3,4.554162383E-2,4.639680752E-2
1.421231913E1,-5.865585274E-3,1.354252604E-2,-3.978094697E-2,4.243028216E-2
1.422230713E1,9.282137934E-3,3.592472195E-2,-7.810125947E-2,8.646704842E-2
1.423229513E1,4.173794495E-3,2.411478530E-3,-1.747732759E-2,1.812988606E-2
1.424228313E1,3.184717982E-3,6.893456122E-4,-1.598044038E-2,1.630926426E-2
1.425227113E1,1.730285672E-2,2.240287815E-2,-7.974842012E-2,8.462321379E-2
1.426225913E1,1.292080485E-2,1.454649753E-2,-7.181491792E-2,7.440383206E-2
1.427224713E1,8.144520444E-4,-7.322988929E-3,-1.012153029E-3,7.437335057E-3
1.428223413E1,4.340465837E-3,2.930284159E-3,-2.256674409E-2,2.316644443E-2
1.429222212E1,1.267955238E-2,2.421596954E-2,-6.298269868E-2,6.865860880E-2
1.430221013E1,6.930595649E-3,2.517900139E-3,-6.699154973E-3,9.962512459E-3
1.431219813E1,-5.439017188E-3,-1.259944324E-2,4.269812286E-2,4.484928733E-2
1.432218613E1,-1.451236099E-3,2.178363289E-2,-2.121896088E-2,3.044465551E-2
1.433217413E1,5.546460918E-3,6.746725270E-3,-4.531884491E-2,4.615278144E-2
1.434216213E1,-1.173611327E-2,-6.170278885E-3,2.189080596E-2,2.559328197E-2
1.435215013E1,-7.670940516E-3,-3.686840774E-3,1.680197418E-2,1.883460803E-2
1.436213813E1,7.465586759E-3,2.516603473E-2,-6.807153046E-2,7.295750509E-2
1.437212613E1,6.999454036E-4,1.454943713E-2,-5.295296967E-2,5.491987838E-2
1.438211413E1,-1.907075666E-3,-5.982030518E-3,4.527499080E-3,7.740792895E-3
1.439210213E1,-1.113944260E-3,2.488822346E-2,-4.666662812E-2,5.290027145E-2
1.440209013E1,1.683687817E-2,3.615488298E-2,-9.052542329E-2,9.892172810E-2
1.441207813E1,-1.163346723E-2,-6.502069545E-3,-2.825433075E-2,3.123974511E-2
1.442206613E1,-5.923992335E-3,-3.082512764E-3,-9.094759226E-3,1.128318286E-2
1.443205413E1,1.341976192E-2,1.990862955E-2,-5.235479951E-2,5.759747019E-2
1.444204213E1,7.814201867E-3,1.889640343E-2,-2.376425385E-2,3.135084647E-2
1.445203013E1,4.956277002E-3,-6.087364911E-3,5.332602203E-2,5.390069868E-2
1.446201812E1,-1.199684770E-3,1.001568655E-2,1.126290679E-2,1.511973181E-2
1.447200613E1,1.252225543E-2,2.978623273E-2,-5.400137544E-2,6.292992206E-2
1.448199413E1,8.306231360E-3,4.851092217E-3,-1.433327973E-2,1.726179257E-2
1.449198113E1,5.051732227E-3,-9.187202335E-3,3.162057281E-2,3.331344038E-2
1.450196913E1,-2.527935194E-3,1.048096960E-2,-6.582678437E-2,6.670387336E-2
1.451195713E1,2.405763790E-4,2.049372113E-2,-5.310324311E-2,5.692104103E-2
1.452194513E1,-4.576877788E-3,-1.069124553E-2,1.665170074E-2,2.031082664E-2
1.453193313E1,-8.349390550E-3,3.198685062E-3,-1.987234712E-2,2.179114702E-2
1.454192113E1,-9.098217877E-3,2.637490088E-2,-7.450931489E-2,7.956161745E-2
1.455190913E1,3.276612915E-3,2.184834969E-3,-1.732763886E-2,1.776954599E-2
1.456189713E1,1.789499237E-3,-8.305784825E-3,3.760812163E-2,3.855592279E-2
1.457188513E1,9.647547228E-3,1.837881977E-2,-1.912390351E-2,2.822374655E-2
1.458187313E1,1.580496909E-2,2.921789251E-2,-5.295355439E-2,6.251048883E-2
1.459186113E1,1.785264117E-2,-4.848040701E-3,3.775839508E-2,4.204660146E-2
1.460184912E1,1.072170701E-2,3.758868878E-4,1.515539825E-2,1.856831679E-2
1.461183713E1,1.830195173E-2,2.913717809E-2,-7.346032441E-2,8.111939254E-2
1.462182513E1,1.394242534E-2,2.054486600E-2,-1.897363007E-2,3.124870207E-2
1.463181312E1,-2.581551421E-3,-1.216750760E-3,3.042364776E-2,3.055721246E-2
1.464180113E1,8.035456739E-3,1.599565456E-2,-5.070763886E-2,5.377447506E-2
1.465178913E1,6.991971427E-3,3.223067951E-2,-9.456643403E-2,1.001524578E-1
1.466177713E1,2.862123554E-3,5.025407765E-3,-8.196042180E-3,1.003103095E-2
1.467176513E1,-4.362884542E-3,-1.010463504E-2,9.617500305E-3,1.461624859E-2
1.468175313E1,-2.958758500E-3,2.433261464E-2,-5.938899994E-2,6.424860855E-2
1.469174113E1,2.491213081E-3,7.982006678E-3,-5.025857270E-2,5.094941317E-2
1.470172913E1,-1.850975515E-3,-2.547952315E-2,5.437384307E-2,6.007617682E-2
1.471171613E1,1.001865699E-2,-1.111966143E-2,2.293921173E-2,2.739028647E-2
1.472170413E1,1.321121732E-2,1.870404830E-2,-5.594674408E-2,6.045176474E-2
1.473169213E1,1.014510531E-2,-6.490071332E-3,9.317538142E-3,1.522697293E-2
1.474168013E1,-6.474363792E-4,-2.195474389E-2,5.257757843E-2,5.698097671E-2
1.475166813E1,1.337686483E-2,7.033848683E-3,-3.094931245E-2,3.444235011E-2
1.476165613E1,3.467315513E-3,1.611190680E-2,-5.205542207E-2,5.460204011E-2
1.477164412E1,-9.755611082E-4,2.354022784E-3,4.077263474E-3,4.808037040E-3
1.478163213E1,-6.692492345E-5,1.181362771E-2,-1.223880708E-2,1.701042849E-2
1.479162013E1,-4.557027519E-3,3.927630485E-2,-5.954102755E-2,7.147397137E-2
1.480160813E1,-3.790832134E-3,2.593627520E-2,-3.364487886E-2,4.265018937E-2
1.481159613E1,-9.517483796E-3,9.469383024E-4,1.380586088E-2,1.679526673E-2
1.482158413E1,-1.365498901E-2,2.629317234E-2,-2.960328341E-2,4.188250261E-2
1.483157213E1,-3.853100413E-3,2.642650941E-2,-7.196577609E-2,7.676118622E-2
1.484156013E1,6.375769686E-3,1.380874794E-3,-2.945417941E-2,3.016796213E-2
1.485154813E1,4.911505260E-3,-5.534946928E-3,1.215986967E-2,1.423449865E-2
1.486153613E1,1.891476277E-2,8.572781025E-3,-5.504978120E-2,5.883654677E-2
1.487152413E1,2.965137447E-2,1.421437568E-2,-4.996036470E-2,5.981045498E-2
1.488151213E1,2.088636395E-2,-1.500636734E-2,2.174111724E-2,3.367651167E-2
1.489150013E1,1.530927595E-2,1.929017000E-3,4.526914358E-3,1.608067133E-2
1.490148813E1,2.279176824E-2,1.023182340E-2,-5.684546113E-2,6.209316678E-2
1.491147613E1,7.971825443E-3,-9.800801380E-3,-7.447598577E-3,1.466534804E-2
1.492146313E1,-1.920773226E-3,-2.325873237E-2,3.042423248E-2,3.834438581E-2
1.493145113E1,1.073681270E-3,3.544093338E-3,-5.370141327E-2,5.382894367E-2
1.494143912E1,9.437591073E-3,3.012880648E-3,-7.810067475E-2,7.872649472E-2
1.495142713E1,-3.143469987E-3,-1.538622851E-2,1.036535919E-2,1.881643171E-2
1.496141513E1,6.831632095E-4,-5.324417471E-3,-1.478293061E-2,1.572740191E-2
1.497140313E1,1.713047806E-2,1.883019285E-2,-8.064596772E-2,8.456832475E-2
1.498139113E1,7.143612456E-3,7.224218950E-3,-3.543997407E-2,3.686749653E-2
1.499137913E1,4.158844695E-3,-5.345001498E-3,5.377450347E-2,5.419928278E-2
1.500136713E1,1.587440249E-2,2.265907071E-2,-5.352541208E-3,2.817942223E-2
1.501135513E1,6.066880812E-3,2.591814655E-2,-3.903250337E-2,4.724503871E-2
1.502134625E1,-7.368279726E-3,6.800960479E-3,3.311746001E-2,3.460217865E-2
1.503133425E1,-5.553158949E-3,1.351413278E-2,9.316953421E-3,1.732844425E-2
1.504132225E1,8.549782739E-5,3.154602994E-2,-7.376087129E-2,8.022359658E-2
1.505131025E1,-1.243789564E-5,2.675824754E-2,-5.594791353E-2,6.201752167E-2
1.506129825E1,-1.323613651E-2,-1.298225086E-2,-1.418417573E-2,2.334362843E-2
1.507128625E1,-3.857178046E-3,1.048766878E-2,-4.696600556E-2,4.827706181E-2
1.508127425E1,8.005134015E-3,2.363540041E-2,-9.172293305E-2,9.505688177E-2
1.509126225E1,-3.040350570E-3,-4.074835510E-3,-3.229709566E-2,3.269480699E-2
1.510125025E1,-3.223860637E-3,-2.066655432E-2,6.322594285E-3,2.185120004E-2
1.511123825E1,2.240546829E-3,1.388527109E-2,-5.969071627E-2,6.132538146E-2
1.512122625E1,8.622887210E-3,1.295351499E-2,-6.358203828E-2,6.545856191E-2
1.513121325E1,1.077033940E-2,-1.173618636E-2,2.278835356E-2,2.780372887E-2
1.514120125E1,4.688169031E-3,3.859842983E-3,1.156111479E-2,1.305896979E-2
1.515118925E1,1.798788316E-2,2.472430043E-2,-5.265534639E-2,6.088875492E-2
1.516117725E1,1.282431894E-2,-3.586764308E-3,-2.210247517E-3,1.349863802E-2
1.517116525E1,6.631650467E-3,-7.507831750E-3,3.132002592E-2,3.288297963E-2
1.518115325E1,9.193911786E-3,1.454611609E-2,-2.960328341E-2,3.424137695E-2
1.519114125E1,1.276580795E-2,3.636017735E-2,-7.121674776E-2,8.097440034E-2
1.520112925E1,-1.816160599E-3,-6.458176598E-3,3.344607353E-4,6.717019300E-3
1.521111725E1,-3.351960912E-3,3.829857730E-4,-4.455578327E-3,5.588783257E-3
1.522110525E1,1.309317094E-2,2.454189928E-2,-6.627643526E-2,7.187699086E-2
1.523109325E1,9.266417261E-3,1.447391440E-2,-4.412191987E-2,4.735086588E-2
1.524108125E1,7.837918494E-4,-9.297897436E-3,3.985345244E-2,4.093119713E-2
1.525106925E1,3.709314296E-3,9.969740231E-3,-1.134359837E-4,1.063802616E-2
1.526105725E1,9.484367656E-3,3.032813715E-2,-4.457157075E-2,5.473914552E-2
1.527104525E1,4.400605364E-3,1.105550194E-2,1.246041656E-2,1.722937699E-2
1.528103325E1,7.620676160E-3,-6.657338245E-3,2.698022246E-2,2.881539973E-2
1.529102125E1,7.323150527E-3,1.733020616E-2,-3.184744477E-2,3.698951632E-2
1.530100925E1,-9.602504253E-4,1.512077405E-2,-3.588962495E-2,3.895670761E-2
1.531099725E1,-1.006187271E-2,-1.203052743E-2,2.353738189E-2,2.828397459E-2
1.532098525E1,-1.280130238E-2,8.354545122E-3,-2.855429292E-2,3.238856914E-2
1.533097325E1,3.200958852E-3,2.536066707E-2,-8.214343965E-2,8.602879895E-2
1.534096125E1,1.575276442E-4,-6.196929398E-4,-1.523199677E-2,1.524541111E-2
1.535094825E1,-3.114625626E-3,3.097697252E-3,2.069329619E-2,2.115441156E-2
1.536093625E1,1.519549279E-2,2.073179189E-2,-3.035055757E-2,3.977268586E-2
1.537092425E1,1.486133812E-2,1.701797626E-2,-4.756476045E-2,5.265811735E-2
1.538091225E1,1.605078284E-2,-7.512728793E-3,2.653115630E-2,3.190565747E-2
1.539090025E1,7.265649671E-3,-6.234963709E-3,1.814858794E-2,2.051915402E-2
1.540088825E1,2.214237785E-2,1.328848964E-2,-3.708655000E-2,4.519160369E-2
1.541087625E1,1.372275161E-2,5.419649428E-3,-5.801607370E-3,1.585386892E-2
1.542086425E1,-4.003455510E-3,-1.683478482E-2,4.209878325E-2,4.551642767E-2
1.543085225E1,4.316225017E-3,9.194365174E-3,-2.271584809E-2,2.488324544E-2
1.544084025E1,1.517666407E-2,3.335509908E-2,-6.837149262E-2,7.757289972E-2
1.545082825E1,2.933956941E-3,6.411547337E-3,-1.358600557E-2,1.530671715E-2
1.546081625E1,-1.186302755E-2,3.093405487E-3,3.478508592E-3,1.274364948E-2
1.547080425E1,3.594011086E-3,2.705827137E-2,-6.971927583E-2,7.487218701E-2
1.548079225E1,2.669908902E-3,2.984725848E-2,-5.744421601E-2,6.479062591E-2
1.549078025E1,-1.258586902E-3,-7.300570796E-3,5.574735403E-3,9.271464272E-3
1.550076825E1,3.685547420E-3,6.331867604E-3,-6.550050974E-3,9.827460246E-3
1.551075625E1,7.389877308E-3,3.952538253E-2,-4.307468355E-2,5.892617851E-2
1.552074425E1,7.520032673E-3,1.445675876E-2,2.248897612E-2,2.777233898E-2
1.553073225E1,-2.647375423E-3,-4.500439719E-3,5.976146758E-2,5.998912869E-2
1.554072025E1,2.585693579E-3,2.330493908E-2,-8.196626902E-3,2.483929728E-2
1.555070825E1,1.283537383E-2,2.036784611E-2,-3.663806856E-2,4.383998225E-2
1.556069525E1,4.166617952E-3,-8.206503214E-3,2.054302275E-2,2.251051274E-2
1.557068325E1,1.726615402E-3,-6.032675172E-3,9.343850613E-4,6.344087477E-3
1.558067125E1,9.716928096E-3,2.364907513E-2,-7.765219331E-2,8.175304625E-2
1.559065925E1,-2.967010840E-3,6.967245243E-3,-4.067907929E-2,4.137793073E-2
1.560064725E1,-1.027448638E-2,-2.065799591E-2,1.710076690E-2,2.871853224E-2
1.561063525E1,-9.435967100E-4,3.752749858E-3,-4.442188203E-2,4.459010103E-2
1.562062325E1,1.049027718E-2,2.254682016E-2,-7.870059907E-2,8.253598796E-2
1.563061125E1,1.656143891E-4,-1.022363958E-2,1.233177781E-3,1.029907578E-2
1.564059925E1,4.828846530E-3,-5.745914925E-3,1.485485137E-2,1.664331416E-2
1.565058725E1,1.593677013E-2,2.743810513E-2,-5.549943209E-2,6.392978349E-2
1.566057525E1,2.412207148E-2,1.491252638E-2,-3.828522921E-2,4.764469069E-2
1.567056325E1,1.408029629E-2,-1.564260836E-2,3.161881864E-2,3.798283339E-2
1.568055125E1,1.074701906E-2,3.414271446E-3,-2.510209680E-3,1.155235131E-2
1.569053925E1,6.394962144E-3,2.540213662E-2,-9.007869601E-2,9.381010372E-2
1.570052725E1,-1.045828195E-2,-4.194931837E-3,-4.352491915E-2,4.495988992E-2
1.571051525E1,-1.311600592E-2,-1.393665807E-2,-3.707719445E-3,1.949377421E-2
1.572050325E1,-8.923210826E-3,1.960738145E-2,-6.133787692E-2,6.501083174E-2
1.573049125E1,-1.398678538E-3,1.567497589E-2,-1.093885410E-1,1.105147686E-1
1.574047925E1,-6.718211528E-3,-3.283088249E-3,-1.478526950E-2,1.656856146E-2
1.575046725E1,2.513960120E-4,1.739302946E-2,3.027688265E-3,1.765637477E-2
1.576045425E1,1.082197534E-2,3.843686395E-2,-9.831157565E-2,1.061116090E-1
1.577044225E1,8.407321953E-3,2.641246696E-2,-4.337581515E-2,5.147584689E-2
1.578043025E1,2.264814373E-2,-6.767398375E-4,5.107776761E-2,5.587785550E-2
1.579041825E1,2.358479915E-2,2.074938835E-2,-1.852748752E-2,3.646981850E-2
1.580040625E1,2.483066265E-2,3.948487686E-2,-6.493157566E-2,7.994827594E-2
1.581039425E1,2.646786248E-2,-1.340823651E-3,3.071951687E-2,4.057134788E-2
1.582038225E1,2.438646612E-2,1.496101487E-3,5.287344754E-2,5.824551059E-2
1.583037025E1,2.290638966E-2,3.018075762E-2,-5.415398777E-2,6.609262598E-2
1.584035825E1,2.283074131E-2,4.981482842E-3,-3.783791721E-2,4.447207999E-2
1.585034625E1,4.563229336E-3,-2.571425231E-2,3.940146267E-2,4.727072133E-2
1.586033425E1,-1.115098286E-3,3.424805570E-3,-7.376262546E-2,7.385050881E-2
1.587032225E1,9.787281977E-3,1.675073110E-2,-7.196694553E-2,7.453602572E-2
